Folder: electrochromicfilms/Edgar/20240515/20240515/EC_measurements/Sample_20240502_B/steps/data

File: OCP_1
Time (s)	WE(1).Potential (V)
2.03377	0.0484344
3.03377	0.0484955
4.03377	0.0485596
5.03377	0.0486389
6.03377	0.048703
7.03377	0.0487427
8.03377	0.0488007
9.03377	0.0488647
10.0338	0.0489319
11.0338	0.048999
12.0338	0.0490601
13.0338	0.0491333
14.0338	0.0491638
15.0338	0.0492554
16.0338	0.0493164
17.0338	0.0493774
18.0338	0.0494385
19.0338	0.0494995
20.0338	0.0495605
21.0338	0.0496216
22.0338	0.0497131
23.0338	0.0497437
24.0338	0.0498047
25.0338	0.0498657
26.0338	0.0499268
27.0338	0.0499878
28.0338	0.0500488
29.0338	0.0500793
30.0338	0.0501404
31.0338	0.0502014
32.0338	0.0502625
33.0338	0.0503235
34.0338	0.0503845
35.0338	0.0504456
36.0338	0.0504761
37.0338	0.0505371
38.0338	0.0505981
39.0338	0.0506592
40.0338	0.0507202
41.0338	0.0508118
42.0338	0.0508728
43.0338	0.0509338
44.0338	0.0509949
45.0338	0.0510254
46.0338	0.0510864
47.0338	0.0511475
48.0338	0.051239
49.0338	0.0513
50.0338	0.0513611
51.0338	0.0513916
52.0338	0.0514526
53.0338	0.0515137
54.0338	0.0515747
55.0338	0.0516052
56.0338	0.0516663
57.0338	0.0517273
58.0338	0.0517578
59.0338	0.0518188
60.0338	0.0518799
61.0338	0.0519409

File: OCP_3
Time (s)	WE(1).Potential (V)
680.574	0.917358
681.574	0.854492
682.574	0.799866
683.574	0.751038
684.574	0.706787
685.574	0.666199
686.574	0.628357
687.574	0.593567
688.574	0.561218
689.574	0.531006
690.574	0.502625
691.574	0.475922
692.574	0.451233
693.574	0.428345
694.574	0.407349
695.574	0.388062
696.574	0.3703
697.574	0.353912
698.574	0.338745
699.574	0.324707
700.574	0.311798
701.574	0.299988
702.574	0.289246
703.574	0.279541
704.574	0.270782
705.574	0.262878
706.574	0.255768
707.574	0.249298
708.574	0.243439
709.574	0.238098
710.574	0.233246
711.574	0.22876
712.574	0.224701
713.574	0.220886
714.574	0.217407
715.574	0.214172
716.574	0.211151
717.574	0.208344
718.574	0.205719
719.574	0.203247
720.574	0.200928
721.574	0.19873
722.574	0.196686
723.574	0.194733
724.574	0.192902
725.574	0.191132
726.574	0.189484
727.574	0.187866
728.574	0.18634
729.574	0.184875
730.574	0.183502
731.574	0.182159
732.574	0.180908
733.574	0.179657
734.574	0.178497
735.574	0.177338
736.574	0.176239
737.574	0.175201
738.574	0.174164
739.574	0.173187
740.574	0.172241
741.574	0.171295
742.574	0.17041
743.574	0.169525
744.574	0.168701
745.574	0.167908
746.574	0.167084
747.574	0.166321
748.574	0.165588
749.574	0.164856
750.574	0.164154
751.574	0.163452
752.574	0.162781
753.574	0.16214
754.574	0.161499
755.574	0.160889
756.574	0.160278
757.574	0.159698
758.574	0.159119
759.574	0.158569
760.574	0.15799
761.574	0.157471
762.574	0.156921
763.574	0.156433
764.574	0.155914
765.574	0.155457
766.574	0.154968
767.574	0.15448
768.574	0.154022
769.574	0.153564
770.574	0.153076
771.574	0.152649
772.574	0.152222
773.574	0.151764
774.574	0.151367
775.574	0.15094
776.574	0.150543
777.574	0.150146
778.574	0.14978
779.574	0.149353
780.574	0.149017
781.574	0.148621
782.574	0.148254
783.574	0.147919
784.574	0.147552
785.574	0.147217
786.574	0.146851
787.574	0.146545
788.574	0.146179
789.574	0.145874
790.574	0.145569
791.574	0.145233
792.574	0.144928
793.574	0.144623
794.574	0.144318
795.574	0.144012
796.574	0.143738
797.574	0.143433
798.574	0.143158
799.574	0.142883

File: pulses_steps_m0p9V_1V.txt
Time (s)	WE(1).Potential (V)	WE(1).Current (A)	External(1).External 2 (V)
61.6563	-0.899048	-0.00252014	3.88428
63.9063	-0.897522	-0.000752258	3.41003
66.1563	-0.897217	-0.000487366	3.07739
68.4063	-0.898132	-0.000405029	2.98035
70.6563	-0.899353	-0.00034024	2.88208
72.9063	-0.898132	-0.000297272	2.84271
75.1563	-0.897827	-0.000264923	2.78412
77.4063	-0.898132	-0.000240784	2.70691
79.6563	-0.8984375	-0.000221771	2.7652
81.9063	-0.898132	-0.000206146	2.74567
84.1563	-0.8984375	-0.00019342	2.64832
86.4063	-0.898132	-0.000182922	2.68738
88.6563	-0.897827	-0.000174011	2.68768
90.9063	-0.899048	-0.000166901	2.64862
93.1563	-0.8984375	-0.000160278	2.55035
95.4063	-0.898743	-0.000154938	2.58911
97.6563	-0.899048	-0.000150146	2.64832
99.9063	-0.8984375	-0.00014624	2.64862
102.156	-0.898132	-0.000142395	2.60895
104.406	-0.897827	-0.000140167	2.50641
106.656	-0.898743	-0.000137817	2.62817
108.906	-0.897827	-0.000135986	2.60956
111.156	-0.898132	-0.000134155	2.62817
113.406	-0.899048	-0.000133026	2.60956
115.656	-0.899048	-0.00013147	2.68768
117.906	-0.899048	-0.000131134	2.55096
120.156	-0.899048	-0.000129761	2.68799
122.416	1.00037	0.00358948	2.82135
124.666	1.00067	0.00108795	3.96088
126.916	1.00098	6.52161e-05	3.96027
129.166	0.999756	3.92456e-05	4.11713
131.416	1.00098	2.6886e-05	3.8623
133.666	1.00128	2.11487e-05	4.09698
135.916	1.00037	1.67236e-05	4.03809
138.166	1.00159	1.44653e-05	4.07745
140.416	1.00098	1.28479e-05	3.9798
142.666	1.00037	1.17493e-05	3.94073
144.916	1.00128	1.11694e-05	4.03778
147.166	1.00098	9.8877e-06	3.96088
149.416	1.00037	1.04065e-05	3.9798
151.666	1.00037	9.42993e-06	4.07745
153.916	1.00037	8.36182e-06	4.05792
156.166	1.00098	7.62939e-06	3.99933
158.416	0.999756	7.90405e-06	4.09637
160.666	1.00098	7.23267e-06	3.9798
162.916	1.00098	7.41577e-06	4.11591
165.166	1.00128	7.38525e-06	4.05701
167.416	1.00006	7.01904e-06	4.11682
169.666	1.00098	7.04956e-06	4.03809
171.916	1.00067	6.89697e-06	3.97949
174.166	1.00159	6.53076e-06	4.07715
176.416	1.00067	5.67627e-06	4.03839
178.666	1.00006	5.85937e-06	3.9798
180.916	1.00037	6.2561e-06	4.13635
183.176	-0.898743	-0.000971985	3.74237
185.426	-0.897827	-0.000544739	3.21381
187.676	-0.898132	-0.000428314	2.94067
189.926	-0.899353	-0.000350739	2.84302
192.176	-0.897827	-0.000300476	2.78503
194.426	-0.897827	-0.000263428	2.82288
196.676	-0.899048	-0.000235474	2.78412
198.926	-0.899048	-0.000214508	2.66754
201.176	-0.8984375	-0.000196899	2.68829
203.426	-0.899048	-0.000182983	2.66724
205.676	-0.899353	-0.000170959	2.7066
207.926	-0.897522	-0.000161926	2.70721
210.176	-0.897827	-0.000155029	2.66785
212.426	-0.897217	-0.00014859	2.72675
214.676	-0.897827	-0.00014386	2.70691
216.926	-0.897522	-0.000139893	2.68768
219.176	-0.898132	-0.000136597	2.56989
221.426	-0.897522	-0.000133911	2.62939
223.676	-0.899353	-0.000132202	2.60895
225.926	-0.8984375	-0.000130554	2.60864
228.176	-0.899658	-0.000128235	2.72614
230.426	-0.897827	-0.000127838	2.64862
232.676	-0.898743	-0.00012619	2.70721
234.926	-0.897217	-0.000125427	2.64862
237.176	-0.897522	-0.000125	2.68799
239.426	-0.8984375	-0.000124725	2.66815
241.686	1.00128	0.00505737	2.62726
243.936	1.00128	0.00184235	3.80402
246.186	1.00128	9.73511e-05	4.01825
248.436	1.00128	5.17273e-05	3.94073
250.686	0.999756	3.61328e-05	4.05701
252.936	1.00159	2.61841e-05	3.94043
255.186	0.999756	2.07825e-05	4.03778
257.436	1.00037	1.71509e-05	4.03809
259.686	1.00037	1.54114e-05	4.05762
261.936	1.00159	1.35193e-05	4.13544
264.186	1.00067	1.19629e-05	4.03778
266.436	1.00128	1.14746e-05	4.03748
268.686	1.00098	1.06201e-05	4.07684
270.936	1.00098	9.73511e-06	3.97949
273.186	1.00128	8.63647e-06	3.80402
275.436	1.00128	9.00269e-06	4.01794
277.686	1.00037	8.08716e-06	3.92059
279.936	1.00037	6.92749e-06	3.9798
282.186	0.999756	7.47681e-06	3.94104
284.436	1.00128	7.17163e-06	3.90137
286.686	1.00098	7.41577e-06	3.88123
288.936	1.00037	7.44629e-06	3.97949
291.186	1.00037	6.92749e-06	3.92059
293.436	1.00098	7.20215e-06	3.9798
295.686	1.00067	7.04956e-06	3.97949
297.936	1.00159	6.92749e-06	3.9798
300.186	1.00006	7.14111e-06	4.07654
302.446	-0.898743	-0.00136719	3.90259
304.696	-0.898743	-0.000625916	3.35083
306.946	-0.897522	-0.000462646	3.07739
309.196	-0.899353	-0.000370483	2.88239
311.446	-0.897522	-0.000312744	2.82349
313.696	-0.899353	-0.000271667	2.80396
315.946	-0.899048	-0.000241852	2.78381
318.196	-0.8984375	-0.000218323	2.78473
320.446	-0.899048	-0.000199432	2.74536
322.696	-0.8984375	-0.00018454	2.70721
324.946	-0.899048	-0.000172577	2.70721
327.196	-0.897827	-0.000162506	2.70691
329.446	-0.898743	-0.000154877	2.66785
331.696	-0.899048	-0.000148468	2.64893
333.946	-0.899048	-0.000142273	2.66785
336.196	-0.898743	-0.000137726	2.62848
338.446	-0.899353	-0.000134308	2.66724
340.696	-0.899048	-0.00013147	2.60895
342.946	-0.899048	-0.00012912	2.70752
345.196	-0.899048	-0.00012735	2.62878
347.446	-0.899048	-0.000125305	2.66785
349.696	-0.8984375	-0.000124664	2.58911
351.946	-0.899048	-0.000123688	2.68829
354.196	-0.8984375	-0.000122925	2.62878
356.446	-0.8984375	-0.000121552	2.68768
358.696	-0.898743	-0.00012146	2.55096
360.946	-0.899048	-0.000120483	2.68768
363.206	1.00037	0.00259644	3.42712
365.456	1.00128	0.000158569	3.92059
367.706	1.00037	6.5979e-05	4.01825
369.956	1.00128	4.32739e-05	4.05731
372.206	0.999756	3.09143e-05	3.97949
374.456	1.00067	2.29797e-05	3.98041
376.706	0.999756	1.89514e-05	3.88123
378.956	1.00128	1.66931e-05	4.0387
381.206	1.00098	1.47095e-05	3.94135
383.456	0.999756	1.34277e-05	4.03809
385.706	1.00067	1.23291e-05	3.94012
387.956	1.00128	1.1261e-05	3.97949
390.206	1.00006	1.08032e-05	3.94012
392.456	1.00006	1.0376e-05	4.1748
394.706	1.00006	8.14819e-06	4.01886
396.956	1.00098	8.42285e-06	3.96027
399.206	0.999756	7.99561e-06	3.96027
401.456	1.00128	8.27026e-06	3.99872
403.706	0.999756	8.02612e-06	3.96027
405.956	1.00128	8.20923e-06	4.05731
408.206	1.00067	7.59888e-06	3.9798
410.456	1.00189	7.56836e-06	4.01794
412.706	1.00128	7.23267e-06	4.01917
414.956	1.00098	7.26318e-06	3.97949
417.206	1.00006	7.01904e-06	3.97919
419.456	1.00037	7.23267e-06	4.01855
421.716	-0.899048	-0.00228058	4.13818
423.966	-0.899048	-0.00074707	3.44849
426.216	-0.898743	-0.000477905	3.05878
428.466	-0.898132	-0.000393311	2.80396
430.716	-0.898132	-0.000326508	2.86285
432.966	-0.898132	-0.000281555	2.72644
435.216	-0.899048	-0.000248047	2.70691
437.466	-0.898132	-0.000222717	2.72614
439.716	-0.898743	-0.000202179	2.74597
441.966	-0.899353	-0.000186371	2.66785
444.216	-0.898132	-0.000172546	2.66815
446.466	-0.897827	-0.000161652	2.64832
448.716	-0.8984375	-0.00015387	2.70691
450.966	-0.897522	-0.000147064	2.60895
453.216	-0.898743	-0.000141174	2.68799
455.466	-0.897217	-0.000136627	2.68768
457.716	-0.898743	-0.000133087	2.5708
459.966	-0.899048	-0.000130402	2.59003
462.216	-0.899658	-0.000127808	2.66785
464.466	-0.8984375	-0.000126251	2.64832
466.716	-0.899048	-0.000124176	2.68829
468.966	-0.8984375	-0.000123169	2.64832
471.216	-0.898132	-0.000121735	2.76398
473.466	-0.899353	-0.000120972	2.78473
475.716	-0.898132	-0.0001203	2.72644
477.966	-0.897827	-0.00011972	2.72644
480.216	-0.8984375	-0.000118988	2.56989
482.476	0.999451	0.00349152	2.91962
484.726	1.00006	0.000918579	3.90106
486.976	1.00037	8.34351e-05	3.91998
489.226	0.999756	5.08118e-05	3.99933
491.476	1.00037	3.58887e-05	3.90137
493.726	1.00037	2.66724e-05	3.97949
495.976	1.00037	1.953125E-05	3.89862
498.226	0.999756	1.77612e-05	3.94104
500.476	1.00006	1.71814e-05	4.15497
502.726	1.00098	1.43127e-05	4.05731
504.976	1.00098	1.27563e-05	3.94073
507.226	1.00067	1.22681e-05	4.05792
509.476	1.00098	1.12305e-05	3.9801
511.726	0.999756	1.07422e-05	3.99902
513.976	1.00128	1.00708e-05	4.03839
516.226	0.999451	9.552e-06	3.93982
518.476	0.999756	9.0332e-06	3.99872
520.726	0.999756	8.81958e-06	3.95996
522.976	1.00098	8.17871e-06	3.9209
525.226	1.00006	8.08716e-06	3.88214
527.476	1.00067	8.39233e-06	4.01855
529.726	0.999756	7.96509e-06	3.94043
531.976	1.00037	8.11768e-06	4.05762
534.226	0.999756	7.96509e-06	3.99872
536.476	1.00037	8.05664e-06	4.05762
538.726	0.999756	7.72095e-06	4.05731
540.976	1.00128	7.32422e-06	3.94104
543.236	-0.898743	-0.000947571	3.66486
545.486	-0.897827	-0.000533447	3.23364
547.736	-0.898743	-0.000419983	2.8833
549.986	-0.898132	-0.000343414	2.82288
552.236	-0.899048	-0.00029306	2.84271
554.486	-0.8984375	-0.000256744	2.80365
556.736	-0.899048	-0.000229401	2.72644
558.986	-0.899353	-0.000207672	2.70691
561.236	-0.8984375	-0.000190094	2.72614
563.486	-0.899048	-0.000176331	2.59003
565.736	-0.8984375	-0.000164764	2.76489
567.986	-0.8984375	-0.000155701	2.68768
570.236	-0.898743	-0.000148041	2.72614
572.486	-0.897827	-0.000142273	2.66754
574.736	-0.898743	-0.000136993	2.66693
576.986	-0.897827	-0.000133179	2.70721
579.236	-0.898132	-0.000129913	2.60895
581.486	-0.897827	-0.000127106	2.74628
583.736	-0.897522	-0.000125305	2.58911
585.986	-0.8984375	-0.000123535	2.70691
588.236	-0.898743	-0.000121613	2.64832
590.486	-0.897522	-0.000120758	2.68738
592.736	-0.898132	-0.000120514	2.66754
594.986	-0.898132	-0.000119568	2.70691
597.236	-0.898743	-0.000119476	2.70721
599.486	-0.897827	-0.000119598	2.57019
601.746	1.00128	0.00484711	2.72461
603.996	1.00128	0.00170593	3.72131
606.246	1.00098	0.000111725	3.9212
608.496	1.00006	6.12488e-05	4.01825
610.746	1.00128	4.1748e-05	4.05731
612.996	1.00067	2.99988e-05	3.92059
615.246	1.00006	2.34375e-05	4.05792
617.496	1.00067	1.9165e-05	3.9798
619.746	0.999756	1.67542e-05	4.05762
621.996	1.00006	1.49536e-05	3.84247
624.246	1.00006	1.39465e-05	4.05731
626.496	1.00006	1.24512e-05	3.90106
628.746	1.00098	1.19629e-05	4.07715
630.996	0.999451	1.09558e-05	4.01825
633.246	1.00037	1.04675e-05	3.92181
635.496	1.00067	9.70459e-06	3.94043
637.746	1.00006	8.81958e-06	3.90198
639.996	1.00006	9.09424e-06	4.05762
642.246	0.999756	8.75854e-06	3.90167
644.496	1.00098	8.14819e-06	3.88275
646.746	0.999451	8.57544e-06	4.03809
648.996	1.00037	8.17871e-06	4.03809
651.246	1.00067	8.3313e-06	3.94104
653.496	1.00098	8.3313e-06	4.09698
655.746	1.00037	8.23975e-06	4.03809
657.996	0.999756	7.72095e-06	3.97949
660.246	1.00128	7.47681e-06	3.9212
661.636	0.999146	7.23267e-06	3.94073