Folder: electrochromicfilms/Edgar/20230906/20230906/EC_measurement_WO3_in_H2SO4_1M_1/electrochromic_data

File: OCP_1
Time (s)	WE(1).Potential (V)	External(1).External 2 (V)
3.21721	0.5859375	3.09692
4.21721	0.5859375	3.1015
5.21721	0.5859375	3.09814
6.21721	0.5859375	3.09967
7.21721	0.5859375	3.1012
8.21721	0.5859375	3.10272
9.21721	0.5859375	3.09937
10.2172	0.5859375	3.10089
11.2172	0.5859375	3.10059
12.2172	0.586243	3.10059
13.2172	0.586243	3.10089
14.2172	0.586243	3.10303
15.2172	0.586243	3.09753
16.2172	0.586243	3.10272
17.2172	0.586243	3.10455
18.2172	0.586243	3.1012
19.2172	0.586243	3.10181
20.2172	0.586243	3.08594
21.2172	0.586243	3.10211
22.2172	0.586243	3.09937
23.2172	0.586243	0.0879517
24.2172	0.586243	0.0884094
25.2172	0.586243	0.0905151
26.2172	0.586243	0.0852966
27.2172	0.586243	0.0904846
28.2172	0.586243	0.0907288
29.2172	0.586243	0.0899048
30.2172	0.586243	0.0882874
31.2172	0.586243	0.0888062
32.2172	0.586548	0.0900269
33.2172	0.586548	0.0898743
34.2172	0.586548	0.0913696
35.2172	0.586548	0.0883484
36.2172	0.586548	0.0900879
37.2172	0.586548	0.0901794
38.2172	0.586548	0.0895996
39.2172	0.586548	0.0874023
40.2172	0.586548	0.0888977
41.2172	0.586548	0.0880127
42.2172	0.586548	0.0853882
43.2172	0.586548	0.0880737
44.2172	0.586548	0.0904846
45.2172	0.586548	0.0838928
46.2172	0.586548	0.611572
47.2172	0.586548	3.09998
48.2172	0.586548	3.09784
49.2172	0.586548	3.10211
50.2172	0.586548	3.10211
51.2172	0.586548	3.10181
52.2172	0.586548	3.09875
53.2172	0.586548	3.10333
54.2172	0.586548	3.10181
55.2172	0.586548	3.10181
56.2172	0.586548	3.10089
57.2172	0.586853	3.09967
58.2172	0.586853	3.10089
59.2172	0.586853	3.09998
60.2172	0.586853	3.10181
61.2172	0.586853	3.10272
62.2172	0.586853	3.10089
63.2172	0.586853	3.10303
64.2172	0.586853	3.09906
65.2172	0.586853	3.1015
66.2172	0.586853	3.10394
67.2172	0.586853	3.10272
68.2172	0.586853	3.10028
69.2172	0.586853	3.10333
70.2172	0.586853	3.10059
71.2172	0.586853	3.10333
72.2172	0.586853	3.09723
73.2172	0.586853	3.10303
74.2172	0.586853	3.10181
75.2172	0.586853	3.10211
76.2172	0.586853	3.09784
77.2172	0.586853	3.10272
78.2172	0.586853	3.09814
79.2172	0.586853	3.10181
80.2172	0.586853	3.10242
81.2172	0.586853	3.10059
82.2172	0.586853	3.09967
83.2172	0.586853	3.1012
84.2172	0.586853	3.10303
85.2172	0.586853	3.10028
86.2172	0.586853	3.09906
87.2172	0.586853	3.1012
88.2172	0.586853	3.1015
89.2172	0.586853	3.10303
90.2172	0.586853	3.09967
91.2172	0.586853	3.1015
92.2172	0.586853	3.10333
93.2172	0.586853	3.1012
94.2172	0.586853	3.10089
95.2172	0.586853	3.09906
96.2172	0.586853	3.10242
97.2172	0.586853	3.10364
98.2172	0.586853	3.10333
99.2172	0.586853	3.09479
100.217	0.586853	3.10333
101.217	0.586853	3.09937
102.217	0.586853	3.09875
103.217	0.587158	3.10089
104.217	0.587158	3.09845
105.217	0.586853	3.10059
106.217	0.586853	3.10272
107.217	0.586853	3.09814
108.217	0.586853	3.09875
109.217	0.587158	3.1015
110.217	0.587158	3.10059
111.217	0.587158	3.10242
112.217	0.586853	3.09723
113.217	0.587158	3.10211
114.217	0.587158	3.0954
115.217	0.586853	3.1015
116.217	0.587158	3.10333
117.217	0.587158	3.1012
118.217	0.586853	3.10028
119.217	0.587158	3.10333
120.217	0.587158	3.10181
121.217	0.587158	3.10181
122.217	0.587158	3.10028
123.217	0.586853	3.10303
124.217	0.586853	3.10059
125.217	0.586853	3.09753
126.217	0.587158	3.10211
127.217	0.586853	3.09845
128.217	0.586853	3.1015
129.217	0.586853	3.09875
130.217	0.586853	3.10272
131.217	0.586853	3.1012
132.217	0.586853	3.0777
133.217	0.586853	3.09845
134.217	0.586853	3.10059
135.217	0.586853	3.10211
136.217	0.586853	3.09998
137.217	0.586853	3.10211
138.217	0.586853	3.09875
139.217	0.586853	3.09875
140.217	0.586853	3.10181
141.217	0.586853	3.10272
142.217	0.586853	3.10028
143.217	0.586853	3.09937
144.217	0.586853	3.08258
145.217	0.586853	3.10059
146.217	0.586853	3.08197
147.217	0.586853	3.08075
148.217	0.586853	3.09814
149.217	0.586853	3.10303
150.217	0.586853	3.10028
151.217	0.586853	3.10181
152.217	0.586853	3.09631
153.217	0.586853	3.08228
154.217	0.586853	3.08075
155.217	0.586853	3.08167
156.217	0.586853	3.08319
157.217	0.586853	3.08014
158.217	0.586853	3.07739
159.217	0.586853	3.08014
160.217	0.586853	3.08258
161.217	0.586853	3.08167
162.217	0.586853	3.07861
163.217	0.586853	3.08105
164.217	0.586853	3.08228
165.217	0.586853	3.09875
166.217	0.586853	3.08441
167.217	0.586853	3.08289
168.217	0.586853	3.08197
169.217	0.586853	3.08014
170.217	0.586853	3.0835
171.217	0.586853	3.0838
172.217	0.586853	3.08014
173.217	0.586853	3.08167
174.217	0.586853	3.08197
175.217	0.586853	3.08319
176.217	0.586853	3.08258
177.217	0.586853	3.08197
178.217	0.586853	3.08075
179.217	0.586853	3.08289
180.217	0.586853	3.08014
181.217	0.586853	3.08258
182.217	0.586853	3.08167

File: OCP_3
Time (s)	WE(1).Potential (V)	External(1).External 2 (V)
11646.3	-0.499481	1.17828
11647.3	-0.499054	1.17737
11648.3	-0.497345	1.19965
11649.3	-0.495331	1.19843
11650.3	-0.493225	1.19751
11651.3	-0.49115	1.19934
11652.3	-0.489105	1.21674
11653.3	-0.487152	1.21643
11654.3	-0.485291	1.21643
11655.3	-0.48349	1.21826
11656.3	-0.481781	1.21704
11657.3	-0.480103	1.21887
11658.3	-0.478516	1.23505
11659.3	-0.477264	1.23596
11660.3	-0.475769	1.23505
11661.3	-0.474304	1.23657
11662.3	-0.472931	1.23566
11663.3	-0.471588	1.23657
11664.3	-0.470245	1.25488
11665.3	-0.468994	1.25519
11666.3	-0.467743	1.25366
11667.3	-0.466553	1.25702
11668.3	-0.465393	1.25488
11669.3	-0.464233	1.25427
11670.3	-0.463135	1.27563
11671.3	-0.462006	1.27472
11672.3	-0.4609375	1.27625
11673.3	-0.4599	1.27319
11674.3	-0.458893	1.27411
11675.3	-0.457886	1.27472
11676.3	-0.456879	1.27472
11677.3	-0.455933	1.29456
11678.3	-0.454987	1.27716
11679.3	-0.454041	1.29547
11680.3	-0.453125	1.29425
11681.3	-0.45224	1.29517
11682.3	-0.451355	1.29333
11683.3	-0.45047	1.29517
11684.3	-0.449646	1.29211
11685.3	-0.448761	1.29395
11686.3	-0.447937	1.31348
11687.3	-0.447113	1.31409
11688.3	-0.44632	1.31226
11689.3	-0.445526	1.31378
11690.3	-0.444855	1.3147
11691.3	-0.444092	1.3147
11692.3	-0.443329	1.31348
11693.3	-0.442566	1.31348
11694.3	-0.441833	1.33423
11695.3	-0.441071	1.33423
11696.3	-0.440369	1.33301
11697.3	-0.439636	1.3324
11698.3	-0.438904	1.33301
11699.3	-0.438171	1.33423
11700.3	-0.4375	1.33057
11701.3	-0.436829	1.34949
11702.3	-0.436127	1.35559
11703.3	-0.435455	1.33392
11704.3	-0.434814	1.3501
11705.3	-0.434143	1.3504
11706.3	-0.433502	1.35193
11707.3	-0.432831	1.35468
11708.3	-0.43219	1.35162
11709.3	-0.43158	1.35254
11710.3	-0.430939	1.35437
11711.3	-0.430328	1.35529
11712.3	-0.4296875	1.35468
11713.3	-0.429108	1.37299
11714.3	-0.428497	1.3739
11715.3	-0.427887	1.37207
11716.3	-0.427277	1.37177
11717.3	-0.426697	1.37512
11718.3	-0.426086	1.37329
11719.3	-0.425507	1.37451
11720.3	-0.424927	1.37451
11721.3	-0.424347	1.37268
11722.3	-0.423767	1.39313
11723.3	-0.423218	1.39252
11724.3	-0.422638	1.39404
11725.3	-0.422089	1.39313
11726.3	-0.421539	1.39282
11727.3	-0.42099	1.3916
11728.3	-0.420441	1.39069
11729.3	-0.419891	1.38916
11730.3	-0.419373	1.39465
11731.3	-0.418823	1.39343
11732.3	-0.418274	1.39252
11733.3	-0.417755	1.41296
11734.3	-0.417206	1.39252
11735.3	-0.416687	1.41083
11736.3	-0.416168	1.41113
11737.3	-0.415649	1.41266
11738.3	-0.415131	1.41327
11739.3	-0.414612	1.41205
11740.3	-0.414124	1.4093
11741.3	-0.413635	1.41266
11742.3	-0.413116	1.41113
11743.3	-0.412598	1.41296
11744.3	-0.412079	1.41296
11745.3	-0.411591	1.43158
11746.3	-0.411102	1.43127
11747.3	-0.410614	1.42975
11748.3	-0.410095	1.4325
11749.3	-0.409607	1.43066
11750.3	-0.409119	1.43188
11751.3	-0.40863	1.43066
11752.3	-0.408142	1.43188
11753.3	-0.407654	1.43188
11754.3	-0.407196	1.42975
11755.3	-0.406708	1.42944
11756.3	-0.40625	1.43188
11757.3	-0.405762	1.45172
11758.3	-0.405304	1.4505
11759.3	-0.404816	1.4502
11760.3	-0.404358	1.44989
11761.3	-0.4039	1.44958
11762.3	-0.403442	1.44928
11763.3	-0.402954	1.4502
11764.3	-0.402496	1.44989
11765.3	-0.402039	1.44867
11766.3	-0.401581	1.44867
11767.3	-0.401123	1.46851
11768.3	-0.400665	1.4679
11769.3	-0.400208	1.46606
11770.3	-0.39975	1.46698
11771.3	-0.399261	1.46606
11772.3	-0.398834	1.47095
11773.3	-0.398376	1.46912
11774.3	-0.397919	1.4679
11775.3	-0.397461	1.46881
11776.3	-0.397034	1.4682
11777.3	-0.396576	1.46912
11778.3	-0.396149	1.46973
11779.3	-0.395691	1.48895
11780.3	-0.395233	1.48895
11781.3	-0.394806	1.4856
11782.3	-0.394348	1.4856
11783.3	-0.393921	1.48895
11784.3	-0.393463	1.48468
11785.3	-0.393036	1.48865
11786.3	-0.392609	1.48926
11787.3	-0.392151	1.48804
11788.3	-0.391724	1.48743
11789.3	-0.391296	1.48743
11790.3	-0.390869	1.48682
11791.3	-0.390442	1.48834
11792.3	-0.390015	1.48834
11793.3	-0.389587	1.50787
11794.3	-0.38916	1.50879
11795.3	-0.388733	1.50787
11796.3	-0.388306	1.5094
11797.3	-0.387878	1.51154
11798.3	-0.387451	1.50696
11799.3	-0.387024	1.50909
11800.3	-0.386597	1.50543
11801.3	-0.3862	1.50818
11802.3	-0.385742	1.50757
11803.3	-0.385315	1.50726
11804.3	-0.384918	1.5274
11805.3	-0.384491	1.5387
11806.3	-0.384094	1.50757
11807.3	-0.383667	1.50665
11808.3	-0.38324	1.52649
11809.3	-0.3828125	1.52832
11810.3	-0.382385	1.52527
11811.3	-0.381989	1.5271
11812.3	-0.381561	1.5274
11813.3	-0.381165	1.52802
11814.3	-0.380737	1.52954
11815.3	-0.380341	1.52832
11816.3	-0.379944	1.52771
11817.3	-0.379517	1.52863
11818.3	-0.37912	1.52802
11819.3	-0.378723	1.52924
11820.3	-0.378296	1.54785
11821.3	-0.377869	1.54877
11822.3	-0.377441	1.54572
11823.3	-0.377045	1.54785
11824.3	-0.376648	1.54755
11825.3	-0.376221	1.56799
11826.3	-0.375824	1.56219
11827.3	-0.375427	1.56647
11828.3	-0.375031	1.56555
11829.3	-0.374634	1.56799
11830.3	-0.374237	1.56738
11831.3	-0.37381	1.56616
11832.3	-0.373413	1.56494
11833.3	-0.373016	1.56494
11834.3	-0.37262	1.56525
11835.3	-0.372223	1.56433
11836.3	-0.371826	1.58539
11837.3	-0.37149	1.58508
11838.3	-0.371124	1.58691
11839.3	-0.370728	1.58295
11840.3	-0.370331	1.58569
11841.3	-0.369934	1.58508
11842.3	-0.369537	1.58264
11843.3	-0.36911	1.58386
11844.3	-0.368713	1.58264
11845.3	-0.368317	1.58508
11846.3	-0.36792	1.58691
11847.3	-0.367523	1.60492
11848.3	-0.367126	1.60553
11849.3	-0.36673	1.6037
11850.3	-0.366333	1.60461
11851.3	-0.365936	1.60187
11852.3	-0.36554	1.60522
11853.3	-0.365173	1.60522
11854.3	-0.364777	1.60461
11855.3	-0.36438	1.60492
11856.3	-0.363983	1.60522
11857.3	-0.363586	1.60492
11858.3	-0.36319	1.60522
11859.3	-0.362793	1.62323
11860.3	-0.362396	1.6037
11861.3	-0.36203	1.60583
11862.3	-0.361633	1.60522
11863.3	-0.361237	1.60431
11864.3	-0.36087	1.62445
11865.3	-0.360504	1.62231
11866.3	-0.360107	1.61987
11867.3	-0.359711	1.62354

File: OCP_3(1)
Time (s)	WE(1).Potential (V)	External(1).External 2 (V)
10339.4	0.270935	2.97852
10340.4	0.268219	2.97821
10341.4	0.266541	2.97852
10342.4	0.265015	2.97791
10343.4	0.263641	2.97882
10344.4	0.26239	2.97791
10345.4	0.261261	2.97882
10346.4	0.260254	2.97852
10347.4	0.259369	2.97882
10348.4	0.258545	2.97913
10349.4	0.257843	2.97913
10350.4	0.257202	2.97882
10351.4	0.256622	2.97913
10352.4	0.256104	2.97852
10353.4	0.255615	2.97913
10354.4	0.255157	2.97821
10355.4	0.254761	2.97882
10356.4	0.254395	2.97913
10357.4	0.254028	2.97882
10358.4	0.253723	2.97882
10359.4	0.253418	2.97882
10360.4	0.253143	2.97882
10361.4	0.252869	2.97913
10362.4	0.252625	2.97821
10363.4	0.25238	2.97852
10364.4	0.252167	2.97943
10365.4	0.251953	2.97943
10366.4	0.25177	2.97882
10367.4	0.251587	2.97882
10368.4	0.251434	2.97852
10369.4	0.251251	2.97913
10370.4	0.251099	2.97913
10371.4	0.250946	2.97943
10372.4	0.250824	2.97821
10373.4	0.250671	2.97882
10374.4	0.250549	2.97913
10375.4	0.250427	2.97943
10376.4	0.250305	2.97943
10377.4	0.250183	2.97882
10378.4	0.250092	2.97821
10379.4	0.25	2.97913
10380.4	0.249908	2.97791
10381.4	0.249817	2.97974
10382.4	0.249725	2.97913
10383.4	0.249634	2.97913
10384.4	0.249542	2.97913
10385.4	0.249481	2.97882
10386.4	0.24939	2.97913
10387.4	0.249329	2.97882
10388.4	0.249237	2.97913
10389.4	0.249176	2.97943
10390.4	0.249115	2.97852
10391.4	0.249054	2.97852
10392.4	0.248993	2.97852
10393.4	0.248932	2.97882
10394.4	0.248871	2.97791
10395.4	0.24881	2.97882
10396.4	0.248749	2.97882
10397.4	0.248718	2.97913
10398.4	0.248657	2.97882
10399.4	0.248596	2.97913
10400.4	0.248566	2.97852
10401.4	0.248505	2.97852
10402.4	0.248474	2.97913
10403.4	0.248444	2.97882
10404.4	0.248383	2.97943
10405.4	0.248352	2.97913
10406.4	0.248322	2.97791
10407.4	0.248291	2.97882
10408.4	0.24823	2.97974
10409.4	0.248199	2.97913
10410.4	0.248169	2.97852
10411.4	0.248138	2.97943
10412.4	0.248108	2.97943
10413.4	0.248077	2.97852
10414.4	0.248047	2.97882
10415.4	0.248016	2.97913
10416.4	0.247986	2.97852
10417.4	0.247986	2.97852
10418.4	0.247955	2.97882
10419.4	0.247925	2.97791
10420.4	0.247894	2.97913
10421.4	0.247864	2.97882
10422.4	0.247864	2.97913
10423.4	0.247833	2.97852
10424.4	0.247803	2.97943
10425.4	0.247772	2.97852
10426.4	0.247772	2.97913
10427.4	0.247742	2.97852
10428.4	0.247742	2.97882
10429.4	0.247711	2.97882
10430.4	0.247681	2.97913
10431.4	0.247681	2.97852
10432.4	0.24765	2.97882
10433.4	0.24765	2.97882
10434.4	0.24762	2.97913
10435.4	0.24762	2.97943
10436.4	0.247589	2.97882
10437.4	0.247589	2.97852
10438.4	0.247589	2.97913
10439.4	0.247559	2.97882
10440.4	0.247559	2.97913
10441.4	0.247528	2.97852
10442.4	0.247528	2.97913
10443.4	0.247528	2.97913
10444.4	0.247498	2.97913
10445.4	0.247498	2.97943
10446.4	0.247498	2.97974
10447.4	0.247467	2.97913
10448.4	0.247467	2.97943
10449.4	0.247467	2.97852
10450.4	0.247467	2.97882
10451.4	0.247437	2.97913
10452.4	0.247437	2.97913
10453.4	0.247437	2.97882
10454.4	0.247437	2.97882
10455.4	0.247406	2.97882
10456.4	0.247406	2.97882
10457.4	0.247406	2.97852
10458.4	0.247406	2.97821
10459.4	0.247406	2.97974
10460.4	0.247406	2.97852
10461.4	0.247375	2.97882
10462.4	0.247375	2.97852
10463.4	0.247375	2.97913
10464.4	0.247375	2.97852
10465.4	0.247375	2.97913
10466.4	0.247375	2.97913
10467.4	0.247375	2.97943
10468.4	0.247375	2.97882
10469.4	0.247375	2.97913
10470.4	0.247345	2.97821
10471.4	0.247345	2.97943
10472.4	0.247345	2.97852
10473.4	0.247345	2.97913
10474.4	0.247345	2.97882
10475.4	0.247345	2.97882
10476.4	0.247345	2.97821
10477.4	0.247345	2.97882
10478.4	0.247345	2.97852
10479.4	0.247345	2.97852
10480.4	0.247345	2.97852
10481.4	0.247345	2.97852
10482.4	0.247345	2.97882
10483.4	0.247345	2.97852
10484.4	0.247345	2.97882
10485.4	0.247345	2.97791
10486.4	0.247345	2.97882
10487.4	0.247345	2.97882
10488.4	0.247345	2.97913
10489.4	0.247375	2.97913
10490.4	0.247375	2.97852
10491.4	0.247375	2.97821
10492.4	0.247375	2.97943
10493.4	0.247375	2.97943
10494.4	0.247375	2.97913
10495.4	0.247375	2.97882
10496.4	0.247375	2.97913
10497.4	0.247375	2.97943
10498.4	0.247375	2.97913
10499.4	0.247375	2.97852
10500.4	0.247406	2.97882
10501.4	0.247406	2.97913
10502.4	0.247406	2.97821
10503.4	0.247406	2.97882
10504.4	0.247406	2.97913
10505.4	0.247406	2.97913
10506.4	0.247406	2.97913
10507.4	0.247406	2.97852
10508.4	0.247437	2.97852
10509.4	0.247437	2.97882
10510.4	0.247437	2.97943
10511.4	0.247437	2.97882
10512.4	0.247437	2.97852
10513.4	0.247467	2.97913
10514.4	0.247467	2.97882
10515.4	0.247467	2.97882
10516.4	0.247467	2.97791
10517.4	0.247467	2.97852
10518.4	0.247498	2.97913
10519.4	0.247498	2.97882
10520.4	0.247498	2.97882
10521.4	0.247498	2.97791
10522.4	0.247528	2.97852
10523.4	0.247528	2.97913
10524.4	0.247528	2.97852
10525.4	0.247528	2.97821
10526.4	0.247528	2.97943
10527.4	0.247559	2.97882
10528.4	0.247559	2.97852
10529.4	0.247559	2.97882
10530.4	0.247559	2.97852
10531.4	0.247589	2.97913
10532.4	0.247589	2.97882
10533.4	0.247589	2.97882
10534.4	0.24762	2.97943
10535.4	0.24762	2.97913
10536.4	0.24762	2.97852
10537.4	0.24762	2.97852
10538.4	0.24765	2.97882
10539.4	0.24765	2.97882
10540.4	0.24765	2.97852
10541.4	0.24765	2.97882
10542.4	0.247681	2.97913
10543.4	0.247681	2.97852
10544.4	0.247681	2.97913
10545.4	0.247711	2.97821
10546.4	0.247711	2.97882
10547.4	0.247711	2.97821
10548.4	0.247742	2.97913
10549.4	0.247742	2.97882
10550.4	0.247742	2.97852
10551.4	0.247772	2.97821
10552.4	0.247772	2.97852
10553.4	0.247772	2.97791
10554.4	0.247803	2.97882
10555.4	0.247803	2.97821
10556.4	0.247803	2.97821
10557.4	0.247803	2.97882
10558.4	0.247833	2.97882
10559.4	0.247833	2.97852
10560.4	0.247864	2.97882
10561.4	0.247864	2.97882
10562.4	0.247864	2.97943
10563.4	0.247894	2.97974
10564.4	0.247894	2.97852
10565.4	0.247894	2.97852
10566.4	0.247925	2.97852
10567.4	0.247925	2.97882
10568.4	0.247925	2.97882
10569.4	0.247955	2.97852
10570.4	0.247955	2.97882
10571.4	0.247955	2.97943
10572.4	0.247986	2.97852
10573.4	0.247986	2.97821
10574.4	0.247986	2.97852
10575.4	0.248016	2.97821
10576.4	0.248016	2.97882
10577.4	0.248047	2.97882
10578.4	0.248047	2.97882
10579.4	0.248047	2.97882
10580.4	0.248077	2.97882
10581.4	0.248077	2.97882
10582.4	0.248108	2.97882
10583.4	0.248108	2.97882
10584.4	0.248108	2.97913
10585.4	0.248138	2.97913
10586.4	0.248138	2.97852
10587.4	0.248138	2.97852
10588.4	0.248169	2.97821
10589.4	0.248169	2.97852
10590.4	0.248169	2.97913
10591.4	0.248199	2.97882
10592.4	0.248199	2.97913
10593.4	0.24823	2.97913
10594.4	0.24823	2.97882
10595.4	0.24823	2.97852
10596.4	0.24826	2.97974
10597.4	0.24826	2.97943
10598.4	0.248291	2.97882
10599.4	0.248291	2.97882
10600.4	0.248291	2.97882
10601.4	0.248322	2.97913
10602.4	0.248322	2.97852
10603.4	0.248322	2.97943
10604.4	0.248352	2.97913
10605.4	0.248352	2.97821
10606.4	0.248383	2.97791
10607.4	0.248383	2.97791
10608.4	0.248383	2.97913
10609.4	0.248413	2.97791
10610.4	0.248413	2.97852
10611.4	0.248413	2.97943
10612.4	0.248444	2.97852
10613.4	0.248444	2.97852
10614.4	0.248474	2.97882
10615.4	0.248474	2.97821
10616.4	0.248505	2.97882
10617.4	0.248505	2.97852
10618.4	0.248505	2.97913
10619.4	0.248535	2.97882
10620.4	0.248535	2.97913
10621.4	0.248566	2.97882
10622.4	0.248566	2.97943
10623.4	0.248596	2.97882
10624.4	0.248596	2.97821
10625.4	0.248596	2.97943
10626.4	0.248627	2.97821
10627.4	0.248627	2.97821
10628.4	0.248657	2.97821
10629.4	0.248657	2.97943
10630.4	0.248657	2.97821
10631.4	0.248688	2.97821
10632.4	0.248688	2.97913
10633.4	0.248718	2.97882
10634.4	0.248718	2.97852
10635.4	0.248749	2.97882
10636.4	0.248749	2.97882
10637.4	0.248779	2.97791
10638.4	0.248779	2.97791

File: OCP_reference_optics
Time (s)	WE(1).Potential (V)	External(1).External 2 (V)
8.22486	-0.0592346	2.66846
9.22486	-0.0596924	2.66907
10.2249	-0.0591125	2.66815
11.2249	-0.0588074	2.66907
12.2249	-0.059021	2.66876
13.2249	-0.05859375	2.66785
14.2249	-0.0585632	2.66846
15.2249	-0.05859375	2.66785
16.2249	-0.0588074	2.66998
17.2249	-0.059021	2.66937
18.2249	-0.0591125	2.66907
19.2249	-0.0592651	2.66907
20.2249	-0.059082	2.66785
21.2249	-0.0581665	2.66937
22.2249	-0.059082	2.66785
23.2249	-0.0590515	2.66876
24.2249	-0.0585022	2.66876
25.2249	-0.0586243	2.66815
26.2249	-0.0559387	2.66785
27.2249	-0.0531006	2.66876
28.2249	-0.05859375	2.66968
29.2249	-0.0591125	2.66937
30.2249	-0.0597839	2.66815
31.2249	-0.0603638	2.66968
32.2249	-0.0596313	2.66846
33.2249	-0.0598145	2.66754
34.2249	-0.0602417	2.66876
35.2249	-0.0604553	2.66937
36.2249	-0.0600281	2.66754
37.2249	-0.0606995	2.66815