Folder: electrochromicfilms/Edgar/20240607/20240607/electrodeposition_pulsed_potential_20240607_B/data

File: OCP_1
Time (s)	WE(1).Potential (V)
2.05223	0.47348
3.05223	0.474701
4.05223	0.475861
5.05223	0.47702
6.05223	0.478149
7.05223	0.479218
8.05223	0.480255
9.05223	0.481262
10.0522	0.482239
11.0522	0.483154
12.0522	0.48407
13.0522	0.484985
14.0522	0.48587
15.0522	0.486755
16.0522	0.487579
17.0522	0.488434
18.0522	0.489258
19.0522	0.490112
20.0522	0.490906
21.0522	0.491699
22.0522	0.492493
23.0522	0.493286
24.0522	0.494049
25.0522	0.494781
26.0522	0.495514
27.0522	0.496216
28.0522	0.496857
29.0522	0.497498
30.0522	0.498169
31.0522	0.49881
32.0522	0.499573
33.0522	0.500183
34.0522	0.500793
35.0522	0.501404
36.0522	0.502014
37.0522	0.502625
38.0522	0.503235
39.0522	0.503845
40.0522	0.504456
41.0522	0.504761
42.0522	0.505371
43.0522	0.505981
44.0522	0.506287
45.0522	0.506897
46.0522	0.507507
47.0522	0.5078125
48.0522	0.508423
49.0522	0.509033
50.0522	0.509338
51.0522	0.509949
52.0522	0.510254
53.0522	0.510864
54.0522	0.511169
55.0522	0.51178
56.0522	0.512085
57.0522	0.512695
58.0522	0.513
59.0522	0.513306
60.0522	0.513916
61.0522	0.514221
62.0522	0.514832
63.0522	0.515137
64.0522	0.515442
65.0522	0.516052
66.0522	0.516357
67.0522	0.516663
68.0522	0.517273
69.0522	0.517578
70.0522	0.517883
71.0522	0.518188
72.0522	0.518799
73.0522	0.519104
74.0522	0.519409
75.0522	0.519714
76.0522	0.52002
77.0522	0.520325
78.0522	0.520935
79.0522	0.52124
80.0522	0.521545
81.0522	0.521851
82.0522	0.522156
83.0522	0.522461
84.0522	0.523071
85.0522	0.523376
86.0522	0.523682
87.0522	0.523987
88.0522	0.524292
89.0522	0.524597
90.0522	0.524902
91.0522	0.525208
92.0522	0.525513
93.0522	0.525818
94.0522	0.526123
95.0522	0.526428
96.0522	0.526428
97.0522	0.526733
98.0522	0.527039
99.0522	0.527344
100.052	0.527649
101.052	0.527954
102.052	0.528259
103.052	0.528564
104.052	0.52887
105.052	0.529175
106.052	0.529175
107.052	0.52948
108.052	0.529785
109.052	0.53009
110.052	0.530396
111.052	0.530396
112.052	0.530701
113.052	0.531006
114.052	0.531311
115.052	0.531616
116.052	0.531616
117.052	0.531921
118.052	0.532227
119.052	0.532532
120.052	0.532532
121.052	0.532837
122.052	0.533142
123.052	0.533447
124.052	0.533752
125.052	0.533752
126.052	0.534058
127.052	0.534363
128.052	0.534363
129.052	0.534668
130.052	0.534973
131.052	0.535278
132.052	0.535278
133.052	0.535583
134.052	0.535889
135.052	0.535889
136.052	0.536194
137.052	0.536499
138.052	0.536499
139.052	0.536804
140.052	0.537109
141.052	0.537109
142.052	0.537415
143.052	0.53772
144.052	0.53772
145.052	0.538025
146.052	0.538025
147.052	0.53833
148.052	0.538635
149.052	0.538635
150.052	0.53894
151.052	0.53894
152.052	0.539246
153.052	0.539551
154.052	0.539551
155.052	0.539856
156.052	0.539856
157.052	0.540161
158.052	0.540161
159.052	0.540466
160.052	0.540771
161.052	0.540771
162.052	0.540771
163.052	0.541077
164.052	0.541382
165.052	0.541382
166.052	0.540771
167.052	0.541077
168.052	0.541382
169.052	0.541382
170.052	0.541687
171.052	0.541687
172.052	0.541992
173.052	0.541992
174.052	0.542297
175.052	0.542297
176.052	0.542603
177.052	0.542603
178.052	0.542908
179.052	0.542908
180.052	0.543213
181.052	0.543213

File: OCP_3
Time (s)	WE(1).Potential (V)
3017.24	0.027475
3018.24	0.0426056
3019.24	0.0565186
3020.24	0.069397
3021.24	0.0812988
3022.24	0.0923767
3023.24	0.102722
3024.24	0.112366
3025.24	0.121368
3026.24	0.129822
3027.24	0.137726
3028.24	0.145172
3029.24	0.152161
3030.24	0.158752
3031.24	0.164948
3032.24	0.170837
3033.24	0.176422
3034.24	0.181671
3035.24	0.186707
3036.24	0.191467
3037.24	0.196014
3038.24	0.200378
3039.24	0.204529
3040.24	0.208527
3041.24	0.212341
3042.24	0.216034
3043.24	0.219604
3044.24	0.223053
3045.24	0.226379
3046.24	0.229614
3047.24	0.232758
3048.24	0.23584
3049.24	0.238831
3050.24	0.24176
3051.24	0.244629
3052.24	0.247437
3053.24	0.250214
3054.24	0.25293
3055.24	0.255615
3056.24	0.25827
3057.24	0.260895
3058.24	0.263519
3059.24	0.266113
3060.24	0.268707
3061.24	0.271271
3062.24	0.273804
3063.24	0.276367
3064.24	0.278931
3065.24	0.281464
3066.24	0.284027
3067.24	0.286621
3068.24	0.289215
3069.24	0.291809
3070.24	0.294434
3071.24	0.297119
3072.24	0.299805
3073.24	0.302551
3074.24	0.305298
3075.24	0.308105
3076.24	0.310974
3077.24	0.313904
3078.24	0.316864
3079.24	0.319916
3080.24	0.323029
3081.24	0.326202
3082.24	0.329437
3083.24	0.332794
3084.24	0.336182
3085.24	0.339691
3086.24	0.343231
3087.24	0.346863
3088.24	0.350586
3089.24	0.35434
3090.24	0.358185
3091.24	0.362061
3092.24	0.365997
3093.24	0.369965
3094.24	0.373962
3095.24	0.37796
3096.24	0.381989
3097.24	0.386017
3098.24	0.390076
3099.24	0.394135
3100.24	0.398193
3101.24	0.402252
3102.24	0.406311
3103.24	0.41037
3104.24	0.414429
3105.24	0.418457
3106.24	0.422516
3107.24	0.426544
3108.24	0.430542
3109.24	0.43457
3110.24	0.438568
3111.24	0.442566
3112.24	0.446503
3113.24	0.450439
3114.24	0.454315
3115.24	0.45813
3116.24	0.461884
3117.24	0.465576
3118.24	0.469177
3119.24	0.472687
3120.24	0.476105
3121.24	0.479401
3122.24	0.482574
3123.24	0.485626
3124.24	0.488495
3125.24	0.49118
3126.24	0.493713
3127.24	0.496124
3128.24	0.498352
3129.24	0.500793
3130.24	0.502625
3131.24	0.504456
3132.24	0.505981
3133.24	0.507507
3134.24	0.509033
3135.24	0.510254
3136.24	0.511169
3137.24	0.51239
3138.24	0.513306
3139.24	0.514221
3140.24	0.515137
3141.24	0.515747
3142.24	0.516357
3143.24	0.516968
3144.24	0.517578
3145.24	0.518188
3146.24	0.518494
3147.24	0.519104
3148.24	0.519409
3149.24	0.52002
3150.24	0.520325
3151.24	0.52063
3152.24	0.520935
3153.24	0.52124
3154.24	0.521545
3155.24	0.521851
3156.24	0.522156
3157.24	0.522461
3158.24	0.522461
3159.24	0.522766
3160.24	0.523071
3161.24	0.523071
3162.24	0.523376
3163.24	0.523682
3164.24	0.523682
3165.24	0.523987
3166.24	0.524292
3167.24	0.524292
3168.24	0.524597
3169.24	0.524597
3170.24	0.524902
3171.24	0.524902
3172.24	0.525208
3173.24	0.525208
3174.24	0.525513
3175.24	0.525513
3176.24	0.525818
3177.24	0.525818
3178.24	0.525818
3179.24	0.526123
3180.24	0.526123
3181.24	0.526428
3182.24	0.526428
3183.24	0.526428
3184.24	0.526733
3185.24	0.526733
3186.24	0.526733
3187.24	0.527039
3188.24	0.527039
3189.24	0.527039
3190.24	0.527344
3191.24	0.527344
3192.24	0.527344
3193.24	0.527344
3194.24	0.527649
3195.24	0.527649
3196.24	0.527649