Folder: electrochromicfilms/Edgar/20240531/20240531/electrodeposition_pulsed_potential_20240531_A

File: OCP_1
Time (s)	WE(1).Potential (V)
3.59277	0.46405
4.59277	0.464203
5.59277	0.464355
6.59277	0.464539
7.59277	0.464691
8.59277	0.464813
9.59277	0.464966
10.5928	0.465118
11.5928	0.465271
12.5928	0.465424
13.5928	0.465576
14.5928	0.465729
15.5928	0.465881
16.5928	0.466003
17.5928	0.466156
18.5928	0.466309
19.5928	0.466431
20.5928	0.466583
21.5928	0.466736
22.5928	0.466858
23.5928	0.46701
24.5928	0.467133
25.5928	0.467285
26.5928	0.467407
27.5928	0.46756
28.5928	0.467712
29.5928	0.467834
30.5928	0.467957
31.5928	0.468109
32.5928	0.468231
33.5928	0.468384
34.5928	0.468506
35.5928	0.468658
36.5928	0.468781
37.5928	0.468903
38.5928	0.469055
39.5928	0.469177
40.5928	0.46933
41.5928	0.469482
42.5928	0.469604
43.5928	0.469727
44.5928	0.469849
45.5928	0.469971
46.5928	0.470093
47.5928	0.470215
48.5928	0.470337
49.5928	0.470459
50.5928	0.470612
51.5928	0.470734
52.5928	0.470856
53.5928	0.470978
54.5928	0.4711
55.5928	0.471191
56.5928	0.471313
57.5928	0.471436
58.5928	0.471558
59.5928	0.47168
60.5928	0.471802
61.5928	0.471924
62.5928	0.472046
63.5928	0.472137
64.5928	0.47226
65.5928	0.472382
66.5928	0.472504
67.5928	0.472626
68.5928	0.472717
69.5928	0.472839
70.5928	0.472961
71.5928	0.473083
72.5928	0.473175
73.5928	0.473297
74.5928	0.473419
75.5928	0.473511
76.5928	0.473633
77.5928	0.473724
78.5928	0.473846
79.5928	0.473969
80.5928	0.47406
81.5928	0.474182
82.5928	0.474274
83.5928	0.474213
84.5928	0.474274
85.5928	0.474365
86.5928	0.474487
87.5928	0.474609
88.5928	0.474701
89.5928	0.474823
90.5928	0.474945
91.5928	0.475037
92.5928	0.475159
93.5928	0.47525
94.5928	0.475372
95.5928	0.475494
96.5928	0.475616
97.5928	0.475708
98.5928	0.4758
99.5928	0.475922
100.593	0.476013
101.593	0.476135
102.593	0.476227
103.593	0.476318
104.593	0.47644
105.593	0.476532
106.593	0.476624
107.593	0.476746
108.593	0.476837
109.593	0.476929
110.593	0.477051
111.593	0.477142
112.593	0.477234
113.593	0.477325
114.593	0.477448
115.593	0.477539
116.593	0.477631
117.593	0.477722
118.593	0.477814
119.593	0.477905
120.593	0.477997
121.593	0.478119
122.593	0.47821
123.593	0.478302
124.593	0.478394
125.593	0.478485
126.593	0.478577
127.593	0.478668
128.593	0.47879
129.593	0.478882
130.593	0.478973
131.593	0.479065
132.593	0.479156
133.593	0.479248
134.593	0.47934
135.593	0.479431
136.593	0.479523
137.593	0.479645
138.593	0.479706
139.593	0.479797
140.593	0.479889
141.593	0.47998
142.593	0.480072
143.593	0.480164
144.593	0.480255
145.593	0.480347
146.593	0.480438
147.593	0.48053
148.593	0.480621
149.593	0.480713
150.593	0.480804
151.593	0.480896
152.593	0.480988
153.593	0.481079
154.593	0.481171
155.593	0.481262
156.593	0.481323
157.593	0.481415
158.593	0.481506
159.593	0.481598
160.593	0.481689
161.593	0.481781
162.593	0.481842
163.593	0.481934
164.593	0.482025
165.593	0.482117
166.593	0.482208
167.593	0.482269
168.593	0.482361
169.593	0.482452
170.593	0.482544
171.593	0.482635
172.593	0.482727
173.593	0.482849
174.593	0.482941
175.593	0.483032
176.593	0.483154
177.593	0.483246
178.593	0.483368
179.593	0.483459
180.593	0.483582
181.593	0.483704
182.593	0.483795

File: OCP_3
Time (s)	WE(1).Potential (V)
5885.34	0.465759
5886.34	0.453156
5887.34	0.443817
5888.34	0.436981
5889.34	0.432037
5890.34	0.428558
5891.34	0.426178
5892.34	0.424622
5893.34	0.423676
5894.34	0.423279
5895.34	0.423218
5896.34	0.423431
5897.34	0.423859
5898.34	0.424469
5899.34	0.425201
5900.34	0.425995
5901.34	0.426849
5902.34	0.427704
5903.34	0.428619
5904.34	0.429565
5905.34	0.430481
5906.34	0.431396
5907.34	0.432312
5908.34	0.433258
5909.34	0.434174
5910.34	0.435089
5911.34	0.436005
5912.34	0.436859
5913.34	0.437714
5914.34	0.438568
5915.34	0.439392
5916.34	0.440186
5917.34	0.440979
5918.34	0.441772
5919.34	0.442505
5920.34	0.443207
5921.34	0.443909
5922.34	0.44455
5923.34	0.445221
5924.34	0.445831
5925.34	0.446472
5926.34	0.447113
5927.34	0.447723
5928.34	0.448334
5929.34	0.448944
5930.34	0.449463
5931.34	0.449951
5932.34	0.450439
5933.34	0.450928
5934.34	0.451385
5935.34	0.451874
5936.34	0.452332
5937.34	0.452759
5938.34	0.453186
5939.34	0.453644
5940.34	0.454071
5941.34	0.454468
5942.34	0.454865
5943.34	0.455231
5944.34	0.455566
5945.34	0.455902
5946.34	0.456238
5947.34	0.456543
5948.34	0.456787
5949.34	0.457062
5950.34	0.457336
5951.34	0.457611
5952.34	0.457886
5953.34	0.458099
5954.34	0.458344
5955.34	0.458557
5956.34	0.458801
5957.34	0.458984
5958.34	0.459198
5959.34	0.459442
5960.34	0.459625
5961.34	0.459808
5962.34	0.459991
5963.34	0.460144
5964.34	0.460266
5965.34	0.460449
5966.34	0.460602
5967.34	0.460724
5968.34	0.460907
5969.34	0.461029
5970.34	0.461182
5971.34	0.461304
5972.34	0.461426
5973.34	0.461548
5974.34	0.46167
5975.34	0.461792
5976.34	0.461945
5977.34	0.462036
5978.34	0.462097
5979.34	0.462219
5980.34	0.462311
5981.34	0.462372
5982.34	0.462494
5983.34	0.462555
5984.34	0.462677
5985.34	0.462769
5986.34	0.46283
5987.34	0.462921
5988.34	0.463013
5989.34	0.463074
5990.34	0.463165
5991.34	0.463196
5992.34	0.463287
5993.34	0.463348
5994.34	0.46344
5995.34	0.463531
5996.34	0.463593
5997.34	0.463654
5998.34	0.463715
5999.34	0.463776
6000.34	0.463806
6001.34	0.463867
6002.34	0.463928
6003.34	0.463959
6004.34	0.463989
6005.34	0.46402
6006.34	0.464081
6007.34	0.464111
6008.34	0.464172
6009.34	0.464233
6010.34	0.464264
6011.34	0.464294
6012.34	0.464325
6013.34	0.464355
6014.34	0.464386
6015.34	0.464417
6016.34	0.464447
6017.34	0.464478
6018.34	0.464508
6019.34	0.464478
6020.34	0.464508
6021.34	0.464508
6022.34	0.464539
6023.34	0.464539
6024.34	0.4646
6025.34	0.4646
6026.34	0.464661
6027.34	0.464661
6028.34	0.464691
6029.34	0.464752
6030.34	0.464752
6031.34	0.464813
6032.34	0.464874
6033.34	0.464905
6034.34	0.464966
6035.34	0.464996
6036.34	0.465057
6037.34	0.465118
6038.34	0.465149
6039.34	0.465179
6040.34	0.465179
6041.34	0.46521
6042.34	0.46524
6043.34	0.465271
6044.34	0.465332
6045.34	0.465363
6046.34	0.465393
6047.34	0.465454
6048.34	0.465454
6049.34	0.465454
6050.34	0.465485
6051.34	0.465485
6052.34	0.465485
6053.34	0.465515
6054.34	0.465546
6055.34	0.465576
6056.34	0.465637
6057.34	0.465637
6058.34	0.465698
6059.34	0.465729
6060.34	0.465759
6061.34	0.46579
6062.34	0.46582
6063.34	0.465851
6064.34	0.465851

File: pulses_0_to_1000.txt
Time (s)	WE(1).Potential (V)	WE(1).Current (A)
183.424	-0.6987	-0.00246521
185.784	0.483215	1.43738e-05
188.104	0.483093	3.60107e-06
190.444	-0.699554	-0.00181244
192.804	0.483337	1.47705e-05
195.124	0.484314	1.25122e-06
197.464	-0.698883	-0.00184082
199.824	0.484222	1.171875E-05
202.144	0.483398	6.28662e-06
204.484	-0.698761	-0.00195099
206.844	0.484467	1.43127e-05
209.164	0.483826	5.37109e-06
211.524	0.00120544	0.000504456
213.864	0.48288	2.74963e-05
216.184	0.484192	9.30786e-06
218.544	-0.000695801	0.000198608
220.884	0.483765	2.22778e-05
223.204	0.483521	1.39771e-05
225.564	0.00111389	0.000113403
227.904	0.484436	1.82495e-05
230.224	0.484436	8.05664e-06
232.584	-0.00055542	7.71484e-05
234.924	0.482941	2.53296e-05
237.244	0.482635	1.71814e-05
239.624	0.484467	0.000153687
241.944	0.484192	1.35803e-05
244.264	0.483368	1.34583e-05
246.644	0.484131	7.77283e-05
248.964	0.484467	7.99561e-06
251.284	0.484344	-9.46045e-07
253.664	0.484009	4.97131e-05
255.984	0.483582	1.22986e-05
258.324	-0.698669	-0.00726685
260.684	0.483185	3.72925e-05
263.004	0.483185	1.16882e-05
265.344	-0.6987	-0.00496063
267.704	0.484253	2.32849e-05
270.024	0.48407	2.50244e-06
272.364	-0.699921	-0.00406403
274.724	0.483398	2.15149e-05
277.044	0.483246	6.83594e-06
279.384	-0.698456	-0.00362579
281.744	0.482971	1.98975e-05
284.064	0.482788	7.65991e-06
286.424	0.000653076	0.00757751
288.764	0.482758	1.73035e-05
291.084	0.482849	8.69751e-06
293.444	0.000244141	0.00253479
295.784	0.48349	7.14111e-06
298.104	0.484497	-3.41797e-06
300.464	0.000738525	0.000618896
302.804	0.483795	8.23975e-06
305.124	0.483978	1.83105e-06
307.484	-0.000418091	0.000176971
309.824	0.483246	1.11084e-05
312.144	0.483215	3.23486e-06
314.524	0.482666	0.000214142
316.844	0.48291	1.17798e-05
319.164	0.484375	-4.54712e-06
321.544	0.484131	7.01904e-05
323.864	0.48288	8.48389e-06
326.184	0.483582	1.15967e-06
328.564	0.483337	4.22974e-05
330.884	0.484222	-1.67847e-06
333.224	-0.698517	-0.0101288
335.584	0.484436	2.17896e-05
337.904	0.482849	7.53784e-06
340.244	-0.69931	-0.00653778
342.604	0.483917	1.72729e-05
344.924	0.484406	-2.10571e-06
347.264	-0.699188	-0.00502197
349.624	0.482666	1.9104e-05
351.944	0.482788	7.75146e-06
354.284	-0.698395	-0.00423492
356.644	0.483856	9.58252e-06
358.964	0.482666	8.30078e-06
361.324	0.000646973	0.00931702
363.664	0.483246	9.3689e-06
365.984	0.484344	-3.60107e-06
368.344	-0.000582886	0.00467957
370.684	0.483612	8.36182e-06
373.004	0.483032	6.28662e-06
375.364	0.000762939	0.00172974
377.704	0.483307	7.84302e-06
380.024	0.482941	7.38525e-06
382.384	0.000723267	0.000552673
384.724	0.483978	2.68555e-06
387.044	0.484314	-4.57764e-06
389.424	0.482849	0.000305206
391.744	0.483246	7.44629e-06
394.064	0.482513	7.87354e-06
396.444	0.48349	8.83789e-05
398.764	0.483521	5.98145e-06
401.084	0.482788	6.13403e-06
403.464	0.482971	5.06287e-05
405.784	0.482697	9.00269e-06
408.124	-0.699799	-0.0116882
410.484	0.483093	3.09143e-05
412.804	0.484406	-2.44141e-06
415.144	-0.698486	-0.00763855
417.504	0.482819	2.41699e-05
419.824	0.483337	2.7771e-06
422.164	-0.698303	-0.00577209
424.524	0.482727	1.97144e-05
426.844	0.482483	7.23267e-06
429.184	-0.698547	-0.00477295
431.544	0.483307	1.13831e-05
433.864	0.48291	8.14819e-06
436.224	-0.0009765625	0.0100677
438.564	0.483887	4.45557e-06
440.884	0.483948	-1.70898e-06
443.244	0.00107117	0.00573944
445.584	0.483704	6.37817e-06
447.904	0.482635	6.83594e-06
450.264	0.00102539	0.00273804
452.604	0.482697	1.25427e-05
454.924	0.482788	5.67627e-06
457.284	0.000619507	0.00105743
459.624	0.48349	5.88989e-06
461.944	0.484344	-3.87573e-06
464.324	0.484375	0.00041568
466.644	0.484192	-5.49316e-07
468.964	0.482849	3.87573e-06
471.344	0.483063	0.000110077
473.664	0.48288	7.90405e-06
475.984	0.482788	5.7373e-06
478.364	0.484192	4.75769e-05
480.684	0.484009	2.13623e-07
483.024	-0.699432	-0.0128143
485.384	0.483643	3.25012e-05
487.704	0.48288	6.71387e-06
490.044	-0.699615	-0.00854492
492.404	0.483154	2.33765e-05
494.724	0.483673	3.60107e-06
497.064	-0.700012	-0.00642609
499.424	0.484314	9.765625E-06
501.744	0.482849	7.08008e-06
504.084	-0.700043	-0.00526154
506.444	0.482605	1.72119e-05
508.764	0.484253	-5.09644e-06
511.124	-0.000961304	0.0104767
513.464	0.483276	1.3916e-05
515.784	0.482635	6.65283e-06
518.145	0.000991821	0.00639282
520.485	0.484314	2.99072e-06
522.805	0.483917	8.23975e-07
525.165	0.00102844	0.00353729
527.505	0.484436	-4.27246e-07
529.825	0.483337	1.40381e-06
532.185	0.000723267	0.00159302
534.525	0.483948	2.56348e-06
536.845	0.482971	7.41577e-06
539.225	0.483459	0.000602112
541.545	0.484253	-6.71387e-07
543.865	0.483765	1.40381e-06
546.245	0.484344	0.000125336
548.565	0.483887	3.35693e-07
550.885	0.483093	8.8501e-07
553.265	0.484344	5.62439e-05
555.585	0.483734	3.17383e-06
557.925	-0.699341	-0.0137146
560.285	0.483124	3.93066e-05
562.605	0.484131	-7.01904e-07
564.945	-0.698975	-0.00935669
567.305	0.483673	2.12402e-05
569.625	0.483704	2.10571e-06
571.965	-0.698669	-0.00704559
574.325	0.482788	2.32849e-05
576.645	0.482758	7.53784e-06
578.985	-0.699829	-0.00574341
581.345	0.482697	1.83105e-05
583.665	0.483154	6.56128e-06
586.025	0.000384521	0.0107117
588.365	0.482971	1.25122e-05
590.685	0.483459	3.17383e-06
593.045	-5.49316e-05	0.00684875
595.385	0.484192	3.78418e-06
597.705	0.483765	-2.13623e-07
600.065	-0.00055542	0.00414856
602.405	0.483124	4.36401e-06
604.725	0.482666	3.87573e-06
607.085	0.000396729	0.00211823
609.425	0.484039	1.28174e-06
611.745	0.482727	5.37109e-06
614.125	0.484558	0.000911255
616.445	0.483826	4.54712e-06
618.765	0.482666	7.14111e-06
621.145	0.48407	0.000151245
623.465	0.483002	7.69043e-06
625.785	0.483429	1.5564e-06
628.165	0.483948	7.00378e-05
630.485	0.484283	-3.14331e-06
632.825	-0.699402	-0.0144836
635.185	0.483887	3.91541e-05
637.505	0.483673	3.08228e-06
639.845	-0.698334	-0.010083
642.205	0.482697	3.23792e-05
644.525	0.482971	6.53076e-06
646.865	-0.698608	-0.00761719
649.225	0.483032	2.12402e-05
651.545	0.483704	-2.13623e-07
653.885	-0.698334	-0.00620667
656.245	0.484375	9.70459e-06
658.565	0.483795	-8.54492e-07
660.925	0.000283813	0.0108521
663.265	0.48291	1.67236e-05
665.585	0.484161	-2.50244e-06
667.945	-1.2207e-05	0.00716705
670.285	0.483063	1.297e-05
672.605	0.484467	-4.5166e-06
674.965	0.000161743	0.00459442
677.305	0.483124	1.28784e-05
679.625	0.484497	-5.64575e-06
681.985	-0.000692749	0.00257538
684.325	0.482727	1.16882e-05
686.645	0.484344	-2.19727e-06
689.025	0.484558	0.00168121
691.345	0.483826	1.98364e-06
693.665	0.483643	-1.25122e-06
696.045	0.483917	0.000183655
698.365	0.482666	1.14441e-05
700.685	0.483246	3.20435e-06
703.065	0.484161	7.84302e-05
705.385	0.482727	1.08032e-05
707.725	-0.698059	-0.0151306
710.085	0.483093	5.00488e-05
712.405	0.484406	-3.11279e-06
714.745	-0.69931	-0.0107086
717.105	0.484314	2.67639e-05
719.425	0.484467	-3.44849e-06
721.765	-0.699799	-0.00811768
724.125	0.48288	2.62146e-05
726.445	0.482727	9.27734e-06
728.785	-0.698242	-0.00662384
731.145	0.484039	1.15051e-05
733.465	0.484222	-2.22778e-06
735.825	0.000698853	0.0109192
738.165	0.484467	6.65283e-06
740.485	0.484375	-4.02832e-06
742.845	-0.000726318	0.00739441
745.185	0.484253	5.88989e-06
747.505	0.482697	8.60596e-06
749.865	-0.000738525	0.00493195
752.205	0.48349	6.89697e-06
754.525	0.482635	6.7749e-06
756.885	0.000686646	0.00295166
759.225	0.483185	8.05664e-06
761.545	0.484131	-2.01416e-06
763.925	0.483459	0.00458466
766.245	0.483612	5.70679e-06
768.565	0.482819	6.98853e-06
770.945	0.483826	0.000224182
773.265	0.484344	-1.2207e-07
775.585	0.484161	-2.41089e-06
777.965	0.48291	9.79919e-05
780.285	0.483673	4.88281e-06
782.625	-0.698608	-0.0156982
784.985	0.482819	5.77393e-05
787.305	0.484375	-9.76562e-07
789.645	-0.697876	-0.0112823
792.005	0.482666	3.94592e-05
794.325	0.483368	3.90625e-06
796.665	-0.69989	-0.00860291
799.025	0.482635	3.20129e-05
801.345	0.482544	1.0498e-05
803.685	-0.699036	-0.0069989
806.045	0.482635	2.55127e-05
808.365	0.484406	-1.40381e-06
810.725	-0.00121765	0.0109467
813.065	0.484192	9.12476e-06
815.385	0.483521	7.23267e-06
817.745	-0.00057373	0.00755615
820.085	0.48407	7.78198e-06
822.405	0.483459	4.05884e-06
824.765	0.00062561	0.00517517
827.105	0.483459	6.43921e-06
829.425	0.484406	-2.31934e-06
831.785	-0.000601196	0.00327759
834.125	0.483887	5.88989e-06
836.445	0.483887	1.92261e-06
838.825	0.483398	0.00659515
841.145	0.483795	5.00488e-06
843.465	0.483032	5.52368e-06
845.845	0.484161	0.000267944
848.165	0.482941	9.64355e-06
850.485	0.482758	8.69751e-06
852.865	0.484375	9.87549e-05
855.185	0.483643	1.25122e-06
857.525	-0.698822	-0.0161713
859.885	0.483887	5.70984e-05
862.205	0.484344	2.74658e-07
864.545	-0.699493	-0.0117828
866.905	0.484131	3.48511e-05
869.225	0.484253	1.00708e-06
871.565	-0.698334	-0.00903931
873.925	0.482697	3.28979e-05
876.245	0.483063	6.7749e-06
878.585	-0.698639	-0.00735962
880.945	0.483795	1.71204e-05
883.265	0.484009	-5.49316e-07
883.385	0.482635	6.28662e-06

File: pulses_1000_to_2000.txt
Time (s)	WE(1).Potential (V)	WE(1).Current (A)
895.834	-0.698303	-0.0165924
898.194	0.483154	6.35986e-05
900.514	0.483185	7.1106e-06
902.854	-0.699615	-0.0119659
905.214	0.484253	3.56445e-05
907.534	0.484253	-3.35693e-07
909.874	-0.699524	-0.00920715
912.234	0.483063	2.83508e-05
914.554	0.482666	1.1322e-05
916.894	-0.699951	-0.00750427
919.254	0.483673	1.96228e-05
921.574	0.482666	9.15527e-06
923.934	-0.000842285	0.0109009
926.274	0.483643	1.60522e-05
928.594	0.483704	4.63867e-06
930.954	-0.00083313	0.00768433
933.294	0.484009	1.14746e-05
935.614	0.482849	8.94165e-06
937.974	0.000631714	0.00540894
940.314	0.483032	1.20544e-05
942.634	0.483521	1.00708e-06
944.994	-0.000393677	0.00358612
947.334	0.483063	1.11694e-05
949.654	0.482574	1.11084e-05
952.034	0.484192	0.00802917
954.354	0.483246	9.97925e-06
956.674	0.482635	8.23975e-06
959.054	0.482849	0.000358887
961.374	0.483429	9.09424e-06
963.694	0.482819	6.43921e-06
966.074	0.483368	0.000126129
968.394	0.483154	1.03455e-05
970.734	-0.699371	-0.0167694
973.094	0.483734	6.64368e-05
975.414	0.484039	1.40381e-06
977.754	-0.698944	-0.0124023
980.114	0.483459	4.10461e-05
982.434	0.483978	2.13623e-06
984.774	-0.699615	-0.00958252
987.134	0.483337	3.15247e-05
989.454	0.482635	1.10168e-05
991.794	-0.699463	-0.00781555
994.154	0.483795	2.20032e-05
996.474	0.482849	9.0332e-06
998.834	-0.00115662	0.0108887
1001.17	0.483643	1.86157e-05
1003.49	0.482788	1.04675e-05
1005.85	9.15527e-05	0.00779419
1008.19	0.48407	1.10168e-05
1010.51	0.482758	7.62939e-06
1012.87	0.000244141	0.00556396
1015.21	0.482971	1.9104e-05
1017.53	0.484406	-3.05176e-07
1019.89	0.000961304	0.00378845
1022.23	0.483582	9.70459e-06
1024.55	0.482605	8.57544e-06
1026.93	0.483978	0.00885315
1029.25	0.484314	3.17383e-06
1031.57	0.482849	8.63647e-06
1033.95	0.483276	0.000439117
1036.27	0.484314	3.50952e-06
1038.59	0.483643	1.49536e-06
1040.97	0.482635	0.000146942
1043.29	0.484406	3.479e-06
1045.63	-0.697723	-0.0171692
1047.99	0.482605	8.06885e-05
1050.31	0.483185	1.0376e-05
1052.65	-0.69812	-0.0127899
1055.01	0.484222	4.18701e-05
1057.33	0.484314	1.09863e-06
1059.67	-0.6987	-0.00995483
1062.03	0.484344	2.65198e-05
1064.35	0.483215	7.90405e-06
1066.69	-0.699341	-0.00812988
1069.05	0.483124	2.81677e-05
1071.37	0.483368	6.5918e-06
1073.73	0.000402832	0.010849
1076.07	0.483673	1.97144e-05
1078.39	0.483215	8.5144e-06
1080.75	0.000579834	0.00783386
1083.09	0.483093	1.84021e-05
1085.41	0.483826	2.50244e-06
1087.77	-0.00055542	0.00568512
1090.11	0.482758	1.76697e-05
1092.43	0.483948	6.40869e-07
1094.79	0.000762939	0.00396179
1097.13	0.483124	1.23291e-05
1099.45	0.482941	8.45337e-06
1101.83	0.483887	0.00954285
1104.15	0.483032	1.60522e-05
1106.47	0.484039	7.32422e-07
1108.85	0.482788	0.000558167
1111.17	0.483704	7.32422e-06
1113.49	0.483246	5.7373e-06
1115.87	0.483643	0.000156952
1118.19	0.482758	1.43433e-05
1120.53	-0.699341	-0.0175446
1122.89	0.482483	8.71887e-05
1125.21	0.484131	3.20435e-06
1127.55	-0.69809	-0.0131775
1129.91	0.482697	5.88074e-05
1132.23	0.483124	8.54492e-06
1134.57	-0.699036	-0.010318
1136.93	0.483704	3.17688e-05
1139.25	0.482788	1.11084e-05
1141.59	-0.698669	-0.00843506
1143.95	0.482941	2.91748e-05
1146.27	0.484222	-1.43433e-06
1148.63	-0.000747681	0.0107819
1150.97	0.483124	2.24304e-05
1153.29	0.483276	9.61304e-06
1155.65	-0.000860596	0.00787964
1157.99	0.484253	1.29089e-05
1160.31	0.482727	7.62939e-06
1162.67	0.00100403	0.00577576
1165.01	0.48407	1.10474e-05
1167.33	0.483673	3.63159e-06
1169.69	-0.000253296	0.00410522
1172.03	0.482666	1.82495e-05
1174.35	0.483917	1.00708e-06
1176.73	0.483459	0.010144
1179.05	0.483704	1.00098e-05
1181.37	0.483521	4.18091e-06
1183.75	0.484039	0.000726013
1186.07	0.483887	7.84302e-06
1188.39	0.483002	8.42285e-06
1190.77	0.484436	0.000174957
1193.09	0.482758	1.57471e-05
1195.43	-0.698669	-0.0179321
1197.79	0.482666	9.48486e-05
1200.11	0.484497	2.92969e-06
1202.45	-0.698517	-0.0135376
1204.81	0.483978	5.11169e-05
1207.13	0.483276	8.91113e-06
1209.47	-0.698669	-0.0106873
1211.83	0.484283	3.20129e-05
1214.15	0.482635	1.45874e-05
1216.49	-0.699493	-0.00874329
1218.85	0.484375	2.23694e-05
1221.17	0.483612	4.73022e-06
1223.53	-0.00109558	0.0107056
1225.87	0.482605	2.7771e-05
1228.19	0.483582	2.71606e-06
1230.55	-0.000521851	0.00788574
1232.89	0.483368	1.92261e-05
1235.21	0.48291	8.94165e-06
1237.57	0.000408936	0.005849
1239.91	0.484283	1.05286e-05
1242.23	0.482941	8.27026e-06
1244.59	0.000802612	0.00422485
1246.93	0.483063	1.71814e-05
1249.25	0.483429	6.56128e-06
1251.63	0.482788	0.010672
1253.95	0.482605	1.7395e-05
1256.27	0.483185	7.26318e-06
1258.65	0.483704	0.00103607
1260.97	0.483032	1.5686e-05
1263.29	0.483032	6.50024e-06
1265.67	0.482758	0.000212067
1267.99	0.483643	9.552e-06
1270.33	-0.699127	-0.018277
1272.69	0.484161	9.19189e-05
1275.01	0.484222	2.92969e-06
1277.35	-0.699585	-0.0138794
1279.71	0.484314	5.40161e-05
1282.03	0.484192	4.63867e-06
1284.37	-0.698212	-0.0110107
1286.73	0.483307	4.21448e-05
1289.05	0.484131	3.84521e-06
1291.39	-0.699799	-0.00900879
1293.75	0.482849	3.48816e-05
1296.07	0.48288	9.46045e-06
1298.43	-0.00114136	0.0106323
1300.77	0.482941	2.70691e-05
1303.09	0.484283	1.52588e-07
1305.45	-0.000790405	0.00791321
1307.79	0.483429	2.06299e-05
1310.11	0.483856	2.99072e-06
1312.48	0.000671387	0.00591797
1314.82	0.483124	1.58386e-05
1317.14	0.483856	7.72095e-06
1319.5	-0.000531006	0.00433868
1321.84	0.483063	1.67542e-05
1324.16	0.484375	-1.70898e-06
1326.54	0.482391	0.0111298
1328.86	0.482666	1.84631e-05
1331.18	0.482727	1.04065e-05
1333.56	0.483551	0.00195374
1335.88	0.483582	7.84302e-06
1338.2	0.482788	1.04675e-05
1340.58	0.483582	0.000233643
1342.9	0.48288	1.6571e-05
1345.24	-0.698914	-0.0186127
1347.6	0.483917	0.000106232
1349.92	0.484222	3.38745e-06
1352.26	-0.698456	-0.0142029
1354.62	0.484009	6.3324e-05
1356.94	0.48288	9.49097e-06
1359.28	-0.698181	-0.0113342
1361.64	0.484467	3.94592e-05
1363.96	0.483276	7.99561e-06
1366.3	-0.698669	-0.0092926
1368.66	0.484253	2.76489e-05
1370.98	0.484039	1.58691e-06
1373.34	-0.000109863	0.010553
1375.68	0.482697	3.14941e-05
1378	0.482758	1.27258e-05
1380.36	0.000671387	0.00790405
1382.7	0.482605	2.62756e-05
1385.02	0.483765	6.16455e-06
1387.38	0.00057373	0.00596008
1389.72	0.483368	1.55029e-05
1392.04	0.48407	-6.40869e-07
1394.4	-0.00065918	0.00442688
1396.74	0.484467	1.09558e-05
1399.06	0.484528	-6.40869e-07
1401.44	0.483582	0.0115448
1403.76	0.483948	1.171875E-05
1406.08	0.483917	3.35693e-06
1408.46	0.484375	0.00445374
1410.78	0.484406	4.88281e-06
1413.1	0.484314	-9.15527e-07
1415.48	0.483215	0.000272522
1417.8	0.483948	6.92749e-06
1420.14	-0.697601	-0.0189697
1422.5	0.483582	0.000119019
1424.82	0.482758	1.48926e-05
1427.16	-0.699615	-0.0145203
1429.52	0.483002	7.2113e-05
1431.84	0.483154	1.31531e-05
1434.18	-0.69873	-0.0116577
1436.54	0.48288	5.16357e-05
1438.86	0.484375	2.13623e-06
1441.2	-0.698273	-0.00959473
1443.56	0.483704	3.45154e-05
1445.88	0.482758	1.24207e-05
1448.24	-0.000686646	0.0104614
1450.58	0.484375	2.19727e-05
1452.9	0.482941	1.00403e-05
1455.26	-0.000152588	0.00789795
1457.6	0.4841	1.79138e-05
1459.92	0.483887	3.87573e-06
1462.28	-0.000411987	0.00600677
1464.62	0.482941	2.33459e-05
1466.94	0.483734	3.87573e-06
1469.3	0.000982666	0.00449097
1471.64	0.484344	1.06812e-05
1473.96	0.483368	6.37817e-06
1476.34	0.483948	0.0119202
1478.66	0.482727	2.03552e-05
1480.98	0.483521	5.5542e-06
1483.36	0.483337	0.00582245
1485.68	0.484406	7.47681e-06
1488	0.482666	1.18103e-05
1490.38	0.483826	0.000316101
1492.7	0.484375	4.36401e-06
1495.04	-0.698822	-0.0192902
1497.4	0.482697	0.000137207
1499.72	0.484314	4.54712e-06
1502.06	-0.698975	-0.0148254
1504.42	0.483276	7.4646e-05
1506.74	0.483521	1.27258e-05
1509.08	-0.699677	-0.0119537
1511.44	0.482727	5.49927e-05
1513.76	0.482635	1.21765e-05
1516.1	-0.699127	-0.00986938
1518.46	0.482971	4.05579e-05
1520.78	0.482666	1.30615e-05
1523.14	0.000476074	0.0103394
1525.48	0.482971	3.09143e-05
1527.8	0.484192	9.76562e-07
1530.16	0.000665283	0.00786438
1532.5	0.482513	2.98462e-05
1534.82	0.483948	3.57056e-06
1537.18	0.000726318	0.00602722
1539.52	0.482666	2.70386e-05
1541.84	0.483795	3.32642e-06
1544.2	8.54492e-05	0.00455994
1546.54	0.484039	1.45569e-05
1548.86	0.483948	4.11987e-06
1551.24	0.48233	0.0122864
1553.56	0.4841	1.22681e-05
1555.88	0.483307	7.44629e-06
1558.26	0.482849	0.00671906
1560.58	0.482727	2.03552e-05
1562.9	0.484406	-4.57764e-07
1565.28	0.484222	0.000372589
1567.6	0.484222	7.65991e-06
1569.94	-0.698303	-0.019632
1572.3	0.483002	0.000147064
1574.62	0.482849	1.67847e-05
1576.96	-0.697845	-0.0151367
1579.32	0.482666	8.67615e-05
1581.64	0.483673	9.73511e-06
1583.98	-0.699005	-0.012262
1586.34	0.483459	5.40161e-05
1588.66	0.484558	1.80054e-06
1591	-0.699371	-0.0101532
1593.36	0.482849	4.48914e-05
1595.68	0.483978	5.09644e-06
1595.8	0.482666	1.15356e-05