Folder: electrochromicfilms/Edgar/20240531/20240531/electrodeposition_pulsed_potential_20240531_A (part 4)

File: pulses_6000_to_7000.txt
Time (s)	WE(1).Potential (V)	WE(1).Current (A)
4459.87	-0.698395	-0.0244263
4462.23	0.483734	0.00915527
4464.55	0.482666	3.75671e-05
4466.89	-0.697937	-0.0212311
4469.25	0.484131	0.00703766
4471.57	0.483765	2.87476e-05
4473.91	-0.699036	-0.0187317
4476.27	0.483978	0.00269806
4478.59	0.484161	2.01416e-05
4480.93	-0.698761	-0.016748
4483.29	0.483582	0.000712585
4485.61	0.482605	2.66113e-05
4487.97	0.000881958	0.00595093
4490.31	0.482666	0.000336945
4492.63	0.48291	2.48413e-05
4494.99	-0.000674438	0.00496735
4497.33	0.483368	0.000183441
4499.65	0.483063	1.88599e-05
4502.01	0.000802612	0.00416473
4504.35	0.483673	0.000114746
4506.67	0.484314	1.14136e-05
4509.03	-0.000137329	0.00350647
4511.37	0.483826	7.8064e-05
4513.69	0.483337	1.5625e-05
4516.07	0.481995	0.015448
4518.39	0.483124	6.22559e-05
4520.71	0.484375	9.82666e-06
4523.09	0.482574	0.0131378
4525.41	0.483002	5.07202e-05
4527.73	0.484406	7.84302e-06
4530.11	0.482452	0.0111572
4532.43	0.484314	3.20129e-05
4534.77	-0.697632	-0.0245605
4537.13	0.483307	0.00928955
4539.45	0.484344	2.71301e-05
4541.79	-0.699005	-0.0213013
4544.15	0.484131	0.00719482
4546.47	0.483185	3.07312e-05
4548.81	-0.69751	-0.018811
4551.17	0.483521	0.00326477
4553.49	0.4841	2.02942e-05
4555.83	-0.698242	-0.0168427
4558.19	0.483673	0.000776672
4560.51	0.48288	2.89612e-05
4562.87	0.000689697	0.00587646
4565.21	0.484161	0.000353821
4567.53	0.482819	2.5177e-05
4569.89	-0.000564575	0.00489838
4572.23	0.482697	0.000201416
4574.55	0.48349	1.75171e-05
4576.91	0.000848389	0.00411224
4579.25	0.482727	0.000127106
4581.57	0.484375	1.15051e-05
4583.93	0.000863647	0.0034552
4586.27	0.482758	8.95996e-05
4588.59	0.484375	1.22986e-05
4590.97	0.482178	0.0154449
4593.29	0.484131	5.77698e-05
4595.61	0.483154	1.74561e-05
4597.99	0.482758	0.0131439
4600.31	0.484009	4.44336e-05
4602.63	0.483704	1.3855e-05
4605.01	0.483246	0.011203
4607.33	0.484497	3.39661e-05
4609.67	-0.697662	-0.024588
4612.03	0.482452	0.00935364
4614.35	0.484039	2.92664e-05
4616.69	-0.698151	-0.0213684
4619.05	0.482574	0.00732086
4621.37	0.483032	2.96936e-05
4623.71	-0.698456	-0.0188843
4626.07	0.483795	0.00374695
4628.39	0.483063	2.89917e-05
4630.73	-0.69928	-0.0169067
4633.09	0.483093	0.000848694
4635.41	0.483002	2.15149e-05
4637.77	0.000839233	0.00580048
4640.11	0.484344	0.000380676
4642.43	0.484131	1.70288e-05
4644.79	0.000613403	0.00483521
4647.13	0.484283	0.000205017
4649.45	0.484375	1.30615e-05
4651.81	-1.52588e-05	0.00406219
4654.15	0.484253	0.000126801
4656.47	0.484009	1.49841e-05
4658.83	-0.000650024	0.00342743
4661.17	0.482849	9.27734e-05
4663.49	0.484344	1.13831e-05
4665.87	0.482452	0.0154297
4668.19	0.482819	6.70471e-05
4670.51	0.484344	1.04065e-05
4672.89	0.483917	0.0131592
4675.21	0.484283	4.52576e-05
4677.53	0.483643	1.35193e-05
4679.91	0.483856	0.0112274
4682.23	0.482697	4.58679e-05
4684.57	-0.698395	-0.0246246
4686.93	0.484009	0.00940247
4689.25	0.484039	3.15247e-05
4691.59	-0.699097	-0.0214203
4693.95	0.484009	0.00740509
4696.27	0.484253	2.48108e-05
4698.61	-0.697418	-0.0189636
4700.97	0.483398	0.00413177
4703.29	0.48288	3.15247e-05
4705.63	-0.69751	-0.0170044
4707.99	0.482941	0.000918884
4710.31	0.484131	1.88599e-05
4712.67	9.15527e-05	0.00573425
4715.01	0.482727	0.0004198
4717.33	0.482971	2.69775e-05
4719.69	-0.000372314	0.00477264
4722.03	0.483032	0.000228851
4724.35	0.484375	1.37634e-05
4726.71	-0.000683594	0.00401886
4729.05	0.483276	0.000139587
4731.37	0.483887	1.45264e-05
4733.73	0.000982666	0.0033786
4736.07	0.484131	8.77686e-05
4738.39	0.484406	1.10168e-05
4740.77	0.482178	0.0154419
4743.09	0.482819	7.29675e-05
4745.41	0.48291	2.14844e-05
4747.79	0.483734	0.0131714
4750.11	0.483154	5.43213e-05
4752.43	0.484161	8.54492e-06
4754.81	0.483673	0.011264
4757.13	0.484161	3.8147e-05
4759.47	-0.697479	-0.0246674
4761.83	0.483704	0.0094635
4764.15	0.482758	4.07715e-05
4766.49	-0.697723	-0.0214905
4768.85	0.482666	0.00752258
4771.17	0.484314	2.45667e-05
4773.51	-0.699066	-0.0190338
4775.87	0.484192	0.00445862
4778.19	0.482727	3.2196e-05
4780.53	-0.699249	-0.0170715
4782.89	0.483826	0.000984497
4785.21	0.484314	1.86768e-05
4787.57	-0.000704956	0.00565521
4789.91	0.483612	0.00044342
4792.23	0.483826	2.01416e-05
4794.59	-0.000726318	0.00471191
4796.93	0.484222	0.000235168
4799.25	0.482819	2.48108e-05
4801.61	-0.0006073	0.00396606
4803.95	0.484314	0.000143005
4806.27	0.482727	2.32849e-05
4808.63	-0.0006073	0.00333984
4810.97	0.48407	9.58557e-05
4813.29	0.484283	1.08032e-05
4815.67	0.483429	0.0154205
4817.99	0.483459	6.90002e-05
4820.31	0.484039	1.13525e-05
4822.69	0.482422	0.0131927
4825.01	0.483032	5.8075e-05
4827.33	0.482819	1.66626e-05
4829.71	0.4823	0.0113007
4832.03	0.483368	4.01306e-05
4834.37	-0.698669	-0.0247009
4836.73	0.482361	0.00950928
4839.05	0.482849	4.12598e-05
4841.39	-0.698639	-0.0215454
4843.75	0.482361	0.00759888
4846.07	0.484497	2.56958e-05
4848.41	-0.697998	-0.019101
4850.77	0.482971	0.00474243
4853.09	0.48291	3.13721e-05
4855.43	-0.699219	-0.0171539
4857.79	0.484039	0.00106201
4860.11	0.483124	2.66418e-05
4862.47	0.00055542	0.00557037
4864.81	0.484314	0.000470367
4867.13	0.48349	2.23694e-05
4869.49	0.000299072	0.00464142
4871.83	0.482758	0.000261627
4874.15	0.483459	1.92566e-05
4876.51	0.000271606	0.003909
4878.85	0.484406	0.000150055
4881.17	0.484283	1.2207e-05
4883.53	-0.000418091	0.0032959
4885.87	0.483887	0.000102966
4888.19	0.483459	1.82495e-05
4890.57	0.481842	0.0154083
4892.89	0.484375	6.84509e-05
4895.21	0.484283	1.20544e-05
4897.59	0.482147	0.013205
4899.91	0.484222	5.07202e-05
4902.23	0.482727	2.11182e-05
4904.61	0.4823	0.0113373
4906.93	0.482819	5.02014e-05
4909.27	-0.6987	-0.0247314
4911.63	0.483887	0.009552
4913.95	0.484314	3.0304e-05
4916.29	-0.697296	-0.0216034
4918.65	0.482452	0.00768433
4920.97	0.482819	3.79639e-05
4923.31	-0.697357	-0.0191833
4925.67	0.482758	0.00497894
4927.99	0.482941	3.28064e-05
4930.33	-0.697845	-0.0172455
4932.69	0.482697	0.00114685
4935.01	0.484314	2.02026e-05
4937.37	-0.000305176	0.00550995
4939.71	0.483185	0.000514832
4942.03	0.483582	2.21863e-05
4944.39	0.000256348	0.00458679
4946.73	0.482727	0.000278442
4949.05	0.484039	1.73035e-05
4951.41	-0.000799561	0.00386444
4953.75	0.483032	0.000169525
4956.07	0.482727	2.44446e-05
4958.43	-0.0006073	0.00326233
4960.77	0.482727	0.000113861
4963.09	0.4841	1.34583e-05
4965.47	0.4823	0.0154083
4967.79	0.483063	7.8125E-05
4970.11	0.482697	2.12402e-05
4972.49	0.48291	0.0132324
4974.81	0.482605	6.35376e-05
4977.13	0.483124	1.82495e-05
4979.51	0.482147	0.0113647
4981.83	0.484344	4.10156e-05
4984.17	-0.697388	-0.0247833
4986.53	0.482544	0.00961304
4988.85	0.484009	3.45459e-05
4991.19	-0.698395	-0.0216644
4993.55	0.483215	0.00775757
4995.87	0.482971	3.67432e-05
4998.21	-0.698944	-0.0192566
5000.57	0.484131	0.00519135
5002.89	0.483276	3.07312e-05
5005.23	-0.699158	-0.0173279
5007.59	0.484009	0.00123199
5009.91	0.48288	2.75574e-05
5012.27	-8.23975e-05	0.00542816
5014.61	0.483002	0.000543823
5016.93	0.484039	1.78833e-05
5019.29	-0.000543213	0.00452576
5021.63	0.483398	0.000293793
5023.95	0.483093	2.41699e-05
5026.31	0.000582886	0.00379913
5028.65	0.4841	0.000169861
5030.97	0.484253	1.44958e-05
5033.33	-0.000418091	0.00321533
5035.67	0.482605	0.000121033
5037.99	0.483673	1.59912e-05
5040.37	0.483215	0.0153931
5042.69	0.48291	8.52966e-05
5045.01	0.482941	2.13013e-05
5047.39	0.483551	0.0132324
5049.71	0.483337	6.06079e-05
5052.03	0.48291	1.95923e-05
5054.41	0.483734	0.0113861
5056.73	0.482635	5.4718e-05
5059.07	-0.698792	-0.0248169
5061.43	0.48233	0.00965576
5063.75	0.4841	3.53088e-05
5066.09	-0.698975	-0.0217133
5068.45	0.483032	0.00782776
5070.77	0.482635	3.97644e-05
5073.11	-0.698639	-0.0193237
5075.47	0.483582	0.0053537
5077.79	0.483246	2.98157e-05
5080.13	-0.698914	-0.0174011
5082.49	0.483215	0.00132477
5084.81	0.483521	2.65503e-05
5087.17	0.000259399	0.00535339
5089.51	0.484253	0.00057373
5091.83	0.483856	2.2522e-05
5094.19	0.000228882	0.00445923
5096.53	0.483765	0.000305389
5098.85	0.483459	2.0752e-05
5101.21	4.27246e-05	0.00376038
5103.55	0.482819	0.000190552
5105.87	0.484375	1.52283e-05
5108.23	0.000524902	0.00316833
5110.57	0.483673	0.000120514
5112.89	0.482727	2.41699e-05
5115.27	0.482697	0.01539
5117.59	0.482727	9.11865e-05
5119.91	0.482758	2.31628e-05
5122.29	0.483856	0.0132477
5124.61	0.483307	6.60095e-05
5126.93	0.484253	1.1261e-05
5129.31	0.482239	0.0114258
5131.63	0.482697	5.57251e-05
5133.97	-0.698669	-0.0248474
5136.33	0.4823	0.00970764
5138.65	0.484222	3.58276e-05
5140.99	-0.698547	-0.0217712
5143.35	0.484009	0.00789185
5145.67	0.483582	3.46985e-05
5148.01	-0.698975	-0.0193848
5150.37	0.482544	0.00551361
5152.69	0.482697	3.49731e-05
5155.03	-0.697693	-0.0174652
5157.39	0.484253	0.00140381
5159.71	0.483276	2.63672e-05
5159.83	0.482605	2.0752e-05

File: pulses_7000_to_8000.txt
Time (s)	WE(1).Potential (V)	WE(1).Current (A)
5172.39	-0.698151	-0.0247711
5174.75	0.483887	0.00966187
5177.07	0.483704	3.93982e-05
5179.41	-0.698761	-0.0217712
5181.77	0.482391	0.00787659
5184.09	0.483795	3.24097e-05
5186.43	-0.697876	-0.0194122
5188.79	0.483887	0.00547272
5191.11	0.484253	2.60315e-05
5193.45	-0.697845	-0.0175018
5195.81	0.483429	0.00141205
5198.13	0.484131	2.36816e-05
5200.49	0.000952148	0.00527283
5202.83	0.484161	0.000612488
5205.15	0.483643	2.38647e-05
5207.51	0.000933838	0.00438812
5209.85	0.484222	0.000326721
5212.17	0.483368	2.31323e-05
5214.53	8.54492e-05	0.00369751
5216.87	0.483124	0.000202576
5219.19	0.483704	1.84937e-05
5221.55	-0.000137329	0.00312775
5223.89	0.484039	0.000128967
5226.21	0.484375	1.17798e-05
5228.59	0.482819	0.0153839
5230.91	0.482849	9.24072e-05
5233.23	0.483795	1.60217e-05
5235.61	0.482635	0.0132629
5237.93	0.484222	6.33545e-05
5240.25	0.483948	1.55945e-05
5242.63	0.483704	0.0114563
5244.95	0.483032	5.42297e-05
5247.29	-0.697144	-0.0249176
5249.65	0.482483	0.00975647
5251.97	0.483704	4.0741e-05
5254.31	-0.698822	-0.0218506
5256.67	0.483856	0.00797729
5258.99	0.483887	3.34778e-05
5261.33	-0.698761	-0.0194916
5263.69	0.482483	0.00567902
5266.01	0.482849	3.479e-05
5268.35	-0.698669	-0.0175598
5270.71	0.483734	0.00152679
5273.03	0.483307	2.79236e-05
5275.39	0.000219727	0.00522125
5277.73	0.483124	0.00065918
5280.05	0.483093	3.01208e-05
5282.41	0.000808716	0.00434326
5284.75	0.482635	0.000358093
5287.07	0.484314	1.60828e-05
5289.43	3.05176e-06	0.00366882
5291.77	0.482697	0.000217072
5294.09	0.482819	2.44141e-05
5296.45	0.000274658	0.00309784
5298.79	0.484253	0.000130371
5301.11	0.48349	1.80664e-05
5303.49	0.483154	0.0153961
5305.81	0.483337	9.57947e-05
5308.13	0.484161	1.45874e-05
5310.51	0.482178	0.0133026
5312.83	0.4841	6.44836e-05
5315.15	0.484344	1.10168e-05
5317.53	0.482483	0.0114868
5319.85	0.482788	5.93872e-05
5322.19	-0.697754	-0.024939
5324.55	0.4841	0.00979919
5326.87	0.482727	4.92859e-05
5329.21	-0.697601	-0.0219177
5331.57	0.482452	0.00804749
5333.89	0.482758	4.1626e-05
5336.23	-0.699005	-0.0195496
5338.59	0.484161	0.00578278
5340.91	0.482819	3.89404e-05
5343.25	-0.69812	-0.0176483
5345.61	0.484314	0.00162079
5347.93	0.483673	2.58179e-05
5350.29	0.000302124	0.00517365
5352.63	0.483215	0.000693665
5354.95	0.483093	2.63672e-05
5357.31	0.000811768	0.00429596
5359.65	0.483643	0.000367493
5361.97	0.483765	2.0752e-05
5364.33	0.000836182	0.00362
5366.67	0.484344	0.000215454
5368.99	0.483154	2.22473e-05
5371.35	0.00106506	0.00306061
5373.69	0.483582	0.00014151
5376.01	0.483124	2.32544e-05
5378.39	0.482178	0.0153961
5380.71	0.483704	0.000100128
5383.03	0.482971	2.02332e-05
5385.41	0.482117	0.0132965
5387.73	0.483673	7.14417e-05
5390.05	0.483582	1.77002e-05
5392.43	0.483826	0.0115051
5394.75	0.482849	6.0791e-05
5397.09	-0.697632	-0.0249664
5399.45	0.483337	0.00982666
5401.77	0.482727	5.10559e-05
5404.11	-0.697998	-0.0219391
5406.47	0.483521	0.00809021
5408.79	0.484436	3.14026e-05
5411.13	-0.697876	-0.0195923
5413.49	0.484192	0.00589081
5415.81	0.484314	2.70386e-05
5418.15	-0.697845	-0.0177032
5420.51	0.483612	0.00172455
5422.83	0.483215	2.86865e-05
5425.19	-0.000674438	0.00512177
5427.53	0.48349	0.000722046
5429.85	0.483459	2.63062e-05
5432.21	0.000616455	0.00424988
5434.55	0.483459	0.000388
5436.87	0.48288	2.70081e-05
5439.23	0.00101929	0.00358215
5441.57	0.482727	0.000237335
5443.89	0.483429	1.80664e-05
5446.25	0.000149536	0.00303009
5448.59	0.483887	0.000146912
5450.91	0.482727	2.34985e-05
5453.29	0.482056	0.0153992
5455.61	0.482605	0.000110046
5457.93	0.48288	2.36511e-05
5460.31	0.483368	0.0133179
5462.63	0.483429	7.52258e-05
5464.95	0.484253	1.0498e-05
5467.33	0.482483	0.0115295
5469.65	0.48349	5.84412e-05
5471.99	-0.698547	-0.0249878
5474.35	0.483246	0.00987854
5476.67	0.483734	4.34875e-05
5479.01	-0.698761	-0.0219849
5481.37	0.482727	0.0081604
5483.69	0.483734	3.72925e-05
5486.03	-0.698486	-0.0196503
5488.39	0.484039	0.00600342
5490.71	0.483765	3.15247e-05
5493.05	-0.698273	-0.0177612
5495.41	0.483032	0.00187073
5497.73	0.484344	2.35596e-05
5500.09	0.000567627	0.00504974
5502.43	0.482666	0.000768738
5504.75	0.484344	2.05383e-05
5507.11	0.000918579	0.00419678
5509.45	0.484222	0.000404907
5511.77	0.483795	2.10876e-05
5514.13	-0.000497437	0.00354553
5516.47	0.484192	0.000241119
5518.79	0.484253	1.45874e-05
5521.15	-0.000704956	0.00299713
5523.49	0.48288	0.00016214
5525.81	0.483612	2.06299e-05
5528.19	0.483154	0.0153839
5530.51	0.484467	0.000102631
5532.83	0.484161	1.25122e-05
5535.22	0.482574	0.0133179
5537.54	0.48291	8.21228e-05
5539.86	0.484009	1.51978e-05
5542.24	0.483826	0.0115479
5544.56	0.483765	5.68542e-05
5546.9	-0.698059	-0.0250275
5549.26	0.483002	0.00991211
5551.58	0.483521	4.71191e-05
5553.92	-0.697266	-0.0220306
5556.28	0.48233	0.00821228
5558.6	0.483337	4.12903e-05
5560.94	-0.6987	-0.0197083
5563.3	0.483826	0.00610229
5565.62	0.48291	3.69263e-05
5567.96	-0.698242	-0.0178101
5570.32	0.483582	0.00197449
5572.64	0.483215	3.34473e-05
5575	0.000323486	0.00500336
5577.34	0.482788	0.000803528
5579.66	0.484253	2.31018e-05
5582.02	-1.2207e-05	0.00415131
5584.36	0.483948	0.000424011
5586.68	0.484283	1.84631e-05
5589.04	-0.000314331	0.00350098
5591.38	0.483246	0.00025946
5593.7	0.483154	2.3468e-05
5596.06	-0.000186157	0.00296906
5598.4	0.484314	0.00016037
5600.72	0.483276	2.11182e-05
5603.1	0.482605	0.0153778
5605.42	0.482819	0.000117523
5607.74	0.483032	2.15759e-05
5610.12	0.482117	0.0133301
5612.44	0.482727	8.81958e-05
5614.76	0.482819	1.95618e-05
5617.14	0.482727	0.0115845
5619.46	0.483398	6.19812e-05
5621.8	-0.698364	-0.0250397
5624.16	0.482483	0.00995178
5626.48	0.482849	5.46265e-05
5628.82	-0.697449	-0.0220825
5631.18	0.482483	0.00825806
5633.5	0.483215	4.5105e-05
5635.84	-0.699036	-0.0197662
5638.2	0.48407	0.00619659
5640.52	0.484131	2.98462e-05
5642.86	-0.697693	-0.0178864
5645.22	0.483002	0.00211975
5647.54	0.483398	3.14331e-05
5649.9	5.18799e-05	0.00494415
5652.24	0.482635	0.000843201
5654.56	0.484375	2.13318e-05
5656.92	-0.000650024	0.00411011
5659.26	0.482758	0.000456146
5661.58	0.484192	1.89514e-05
5663.94	-0.000271606	0.00346313
5666.28	0.483185	0.000272491
5668.6	0.484222	1.80359e-05
5670.96	-0.000280762	0.00292572
5673.3	0.483826	0.000170044
5675.62	0.483368	1.79749e-05
5678	0.481995	0.0153717
5680.32	0.483185	0.00012265
5682.64	0.484344	1.22375e-05
5685.02	0.483612	0.0133301
5687.34	0.483002	8.92639e-05
5689.66	0.483826	1.65405e-05
5692.04	0.483398	0.0115997
5694.36	0.484283	5.97229e-05
5696.7	-0.698425	-0.0250732
5699.06	0.482452	0.00997009
5701.38	0.483704	5.01099e-05
5703.72	-0.697296	-0.0221161
5706.08	0.482422	0.00830994
5708.4	0.483002	4.49524e-05
5710.74	-0.697479	-0.0198242
5713.1	0.483734	0.00628296
5715.42	0.483032	3.94897e-05
5717.76	-0.698364	-0.0179382
5720.12	0.484039	0.00225189
5722.44	0.482666	3.37219e-05
5724.8	-0.000259399	0.00489166
5727.14	0.483795	0.000872803
5729.46	0.483582	2.74353e-05
5731.82	-0.000579834	0.00406525
5734.16	0.483093	0.000471832
5736.48	0.482971	2.83508e-05
5738.84	0.000494385	0.00341766
5741.18	0.482758	0.000286865
5743.5	0.482819	2.64587e-05
5745.86	-0.00057373	0.0029007
5748.2	0.483856	0.000180023
5750.52	0.484375	1.67847e-05
5752.9	0.482117	0.0153687
5755.22	0.484314	0.000119934
5757.54	0.484344	1.20239e-05
5759.92	0.482574	0.0133484
5762.24	0.483185	9.01184e-05
5764.56	0.483368	1.75171e-05
5766.94	0.483368	0.011618
5769.26	0.483673	6.69861e-05
5771.6	-0.697815	-0.0250946
5773.96	0.482269	0.0100128
5776.28	0.483307	5.32532e-05
5778.62	-0.697449	-0.0221497
5780.98	0.483215	0.00836182
5783.3	0.482697	4.90417e-05
5785.64	-0.698456	-0.0198547
5788	0.483826	0.00636322
5790.32	0.484375	3.00598e-05
5792.66	-0.698517	-0.0180054
5795.02	0.484192	0.00240845
5797.34	0.483948	3.01514e-05
5799.7	-0.000512695	0.0048465
5802.04	0.483307	0.000910034
5804.36	0.484253	2.21558e-05
5806.72	-0.000588989	0.00401703
5809.06	0.482788	0.000495789
5811.38	0.484161	2.14539e-05
5813.74	0.000430298	0.00337738
5816.08	0.484314	0.000288055
5818.4	0.482758	2.79846e-05
5820.76	0.000952148	0.0028598
5823.1	0.483002	0.000193665
5825.42	0.482758	2.58789e-05
5827.8	0.482452	0.0153564
5830.12	0.482788	0.00013623
5832.44	0.483093	2.27356e-05
5834.82	0.483612	0.0133514
5837.14	0.483124	9.28345e-05
5839.46	0.482819	2.21863e-05
5841.84	0.483582	0.0116333
5844.16	0.482941	7.51953e-05
5846.5	-0.698669	-0.025116
5848.86	0.482544	0.0100281
5851.18	0.484314	4.84314e-05
5853.52	-0.697144	-0.0221954
5855.88	0.482513	0.00839539
5858.2	0.483948	4.2572e-05
5860.54	-0.698395	-0.0199249
5862.9	0.482635	0.0064444
5865.22	0.48291	4.09241e-05
5867.56	-0.69751	-0.0180542
5869.92	0.482971	0.00258911
5872.24	0.484161	2.80151e-05
5872.36	0.483978	1.43127e-05