Folder: electrochromicfilms/Edgar/20240531/20240531/electrodeposition_pulsed_potential_20240531_B (part 2)

File: pulses_2000_to_3000.txt
Time (s)	WE(1).Potential (V)	WE(1).Current (A)
1606.64	-0.698456	-0.0223755
1609	0.518097	0.00110321
1611.32	0.518097	2.01111e-05
1613.66	-0.698334	-0.0184021
1616.02	0.517303	0.000246033
1618.34	0.517517	2.21863e-05
1620.68	-0.699188	-0.0155701
1623.04	0.518188	0.000123383
1625.36	0.517151	2.14844e-05
1627.7	-0.697815	-0.0134979
1630.06	0.516876	9.04236e-05
1632.38	0.518188	1.27563e-05
1634.74	-0.000341797	0.00777588
1637.08	0.518188	6.11267e-05
1639.4	0.51825	1.16882e-05
1641.76	-0.000622559	0.00632019
1644.1	0.516754	5.76782e-05
1646.42	0.516754	2.03247e-05
1648.78	0.000930786	0.00514191
1651.12	0.517456	4.37927e-05
1653.44	0.517975	9.30786e-06
1655.8	-0.000598145	0.00416077
1658.14	0.517487	3.68042e-05
1660.46	0.517822	1.16577e-05
1662.84	0.517212	0.0151978
1665.16	0.517242	3.58276e-05
1667.48	0.516968	1.64795e-05
1669.86	0.517426	0.0120667
1672.18	0.518127	2.64282e-05
1674.5	0.518341	6.19507e-06
1676.88	0.517822	0.00921021
1679.2	0.517914	2.11182e-05
1681.54	-0.697693	-0.022583
1683.9	0.517395	0.00313141
1686.22	0.517273	2.55432e-05
1688.56	-0.698303	-0.0186554
1690.92	0.518127	0.000284851
1693.24	0.516876	2.62451e-05
1695.58	-0.697784	-0.0158356
1697.94	0.516846	0.000146179
1700.26	0.517303	1.94092e-05
1702.6	-0.69928	-0.0137451
1704.96	0.517792	9.08813e-05
1707.28	0.5177	1.66016e-05
1709.64	-0.000814819	0.00759888
1711.98	0.518127	6.51855e-05
1714.3	0.517365	1.59912e-05
1716.66	-0.000567627	0.00621124
1719	0.517609	5.50232e-05
1721.32	0.51712	1.88293e-05
1723.68	0.000823975	0.00507263
1726.02	0.518219	4.26331e-05
1728.34	0.517395	1.71814e-05
1730.7	0.000515747	0.00412109
1733.04	0.517883	3.48511e-05
1735.36	0.517151	1.62659e-05
1737.74	0.517487	0.0152985
1740.06	0.518219	2.9541e-05
1742.38	0.517517	1.32446e-05
1744.76	0.517151	0.0122681
1747.08	0.518188	2.47803e-05
1749.4	0.516785	1.64795e-05
1751.78	0.516296	0.00951538
1754.1	0.517059	3.09448e-05
1756.44	-0.697754	-0.0227081
1758.8	0.516693	0.00540253
1761.12	0.517578	2.37427e-05
1763.46	-0.698456	-0.0188599
1765.82	0.516815	0.00035141
1768.14	0.517548	2.18201e-05
1770.48	-0.697693	-0.0160767
1772.84	0.517517	0.000154388
1775.16	0.518097	1.72119e-05
1777.5	-0.698303	-0.0139954
1779.86	0.517761	9.66492e-05
1782.18	0.518311	1.3916e-05
1784.54	0.000653076	0.00741791
1786.88	0.51712	7.38831e-05
1789.2	0.518188	1.30615e-05
1791.56	0.000546265	0.00607605
1793.9	0.517151	6.00891e-05
1796.22	0.517609	1.40991e-05
1798.58	-0.000494385	0.00499695
1800.92	0.518188	4.36096e-05
1803.24	0.517609	1.40076e-05
1805.6	0.000125122	0.00406586
1807.94	0.516724	4.44946e-05
1810.26	0.516907	1.86462e-05
1812.64	0.517456	0.0153778
1814.96	0.517426	3.75366e-05
1817.28	0.516846	1.80054e-05
1819.66	0.516663	0.0124115
1821.98	0.517548	3.1311e-05
1824.3	0.517792	9.70459e-06
1826.68	0.517242	0.00977173
1829	0.517395	2.90833e-05
1831.34	-0.698639	-0.0228546
1833.7	0.518188	0.00631378
1836.02	0.516785	2.99072e-05
1838.36	-0.697998	-0.019101
1840.72	0.517059	0.000420441
1843.04	0.518127	1.73645e-05
1845.38	-0.698212	-0.0163269
1847.74	0.516968	0.000172638
1850.06	0.516785	2.56653e-05
1852.4	-0.697998	-0.0142578
1854.76	0.517731	0.000102905
1857.08	0.516785	2.41699e-05
1859.44	0.000765991	0.0072467
1861.78	0.516876	8.04138e-05
1864.1	0.518036	1.3855e-05
1866.46	9.15527e-05	0.00596619
1868.8	0.517853	5.70984e-05
1871.12	0.517548	1.78833e-05
1873.48	-0.0003479	0.00491394
1875.82	0.51825	4.49829e-05
1878.14	0.51709	1.72119e-05
1880.5	0.000784302	0.00400757
1882.84	0.518127	3.65601e-05
1885.16	0.516937	1.8158e-05
1887.54	0.516571	0.0154602
1889.86	0.516907	4.12292e-05
1892.18	0.517151	1.44958e-05
1894.56	0.517578	0.0125641
1896.88	0.516876	3.76282e-05
1899.2	0.516815	1.58691e-05
1901.58	0.517731	0.0099884
1903.9	0.516876	3.27148e-05
1906.24	-0.6987	-0.0229797
1908.6	0.517365	0.00689362
1910.92	0.51767	2.49634e-05
1913.26	-0.698853	-0.0192932
1915.62	0.517853	0.000520325
1917.94	0.516724	2.75574e-05
1920.28	-0.698883	-0.0165466
1922.64	0.517822	0.000182587
1924.96	0.517151	2.39258e-05
1927.3	-0.697845	-0.0144775
1929.66	0.516815	0.000115265
1931.98	0.518005	1.60522e-05
1934.34	-0.00067749	0.00709534
1936.68	0.517029	8.24585e-05
1939	0.516846	2.20642e-05
1941.36	-0.000405884	0.00584778
1943.7	0.518219	5.73425e-05
1946.02	0.516785	2.27661e-05
1948.38	-1.83105e-05	0.0048288
1950.72	0.516937	5.40161e-05
1953.04	0.51828	9.94873e-06
1955.4	0.000262451	0.00395599
1957.74	0.518341	3.95508e-05
1960.06	0.516724	1.96533e-05
1962.44	0.516418	0.0155273
1964.76	0.517639	3.57056e-05
1967.08	0.516907	1.73035e-05
1969.46	0.517609	0.0126831
1971.78	0.518188	2.81982e-05
1974.1	0.518036	9.39941e-06
1976.48	0.51651	0.0101959
1978.8	0.517792	2.72522e-05
1981.14	-0.697388	-0.0230988
1983.5	0.51709	0.0073288
1985.82	0.51712	2.8595e-05
1988.16	-0.697632	-0.0194794
1990.52	0.517181	0.000675049
1992.84	0.518311	1.80664e-05
1995.18	-0.698364	-0.0167664
1997.54	0.516937	0.000210327
1999.86	0.51712	2.33459e-05
2002.2	-0.698425	-0.0147125
2004.56	0.517609	0.000114899
2006.88	0.518188	1.5625e-05
2009.24	-0.00010376	0.00694733
2011.58	0.516846	8.69751e-05
2013.9	0.516968	2.23694e-05
2016.26	0.000463867	0.00574158
2018.6	0.5177	6.53381e-05
2020.92	0.517059	1.9104e-05
2023.28	0.000775146	0.00474884
2025.62	0.517975	4.7699e-05
2027.94	0.516876	2.12402e-05
2030.3	0.000915527	0.00390533
2032.64	0.518188	3.98865e-05
2034.96	0.517792	1.08948e-05
2037.34	0.516388	0.0155792
2039.66	0.516968	3.86963e-05
2041.98	0.517303	1.5686e-05
2044.36	0.516113	0.0128113
2046.68	0.517548	3.30811e-05
2049	0.5177	1.14746e-05
2051.38	0.5177	0.0103638
2053.7	0.518219	2.56958e-05
2056.04	-0.698029	-0.0232239
2058.4	0.517456	0.00766296
2060.72	0.517456	2.53906e-05
2063.06	-0.69809	-0.0196808
2065.42	0.518127	0.000855713
2067.74	0.517944	2.21252e-05
2070.08	-0.699005	-0.0169861
2072.44	0.5177	0.000224213
2074.76	0.516785	2.47803e-05
2077.1	-0.697845	-0.0149353
2079.46	0.518127	0.000116089
2081.78	0.516876	2.50549e-05
2084.14	-0.000210571	0.00680237
2086.48	0.516876	8.91113e-05
2088.8	0.516937	2.32849e-05
2091.16	0.000546265	0.00563721
2093.5	0.517639	6.35376e-05
2095.82	0.518158	1.18103e-05
2098.18	-0.000506592	0.00468323
2100.52	0.516724	5.8136e-05
2102.84	0.517151	1.88904e-05
2105.2	0.000808716	0.00385162
2107.54	0.517334	4.46777e-05
2109.86	0.517456	1.3031e-05
2112.24	0.517639	0.0156403
2114.56	0.518188	3.53394e-05
2116.88	0.517761	1.26648e-05
2119.26	0.517487	0.0129028
2121.58	0.517975	3.13416e-05
2123.9	0.517303	1.3916e-05
2126.28	0.517517	0.0105225
2128.6	0.517517	3.10364e-05
2130.94	-0.697357	-0.0233368
2133.3	0.516968	0.00796814
2135.62	0.517365	2.8595e-05
2137.96	-0.698395	-0.0198212
2140.32	0.517731	0.00118378
2142.64	0.518188	1.953125E-05
2144.98	-0.699127	-0.01716
2147.34	0.517181	0.000257904
2149.66	0.516846	2.64282e-05
2152	-0.698517	-0.0151154
2154.36	0.517395	0.000132782
2156.68	0.518188	1.55029e-05
2159.04	-0.000598145	0.006651
2161.38	0.516937	9.15527e-05
2163.7	0.517761	1.74866e-05
2166.06	-0.000613403	0.00551575
2168.4	0.517517	6.77795e-05
2170.72	0.517303	1.94397e-05
2173.08	-0.000494385	0.00458954
2175.42	0.518311	5.07507e-05
2177.74	0.517029	2.13013e-05
2180.1	-0.000189209	0.00378906
2182.44	0.517395	4.55017e-05
2184.76	0.518097	1.11389e-05
2187.14	0.516724	0.0156616
2189.46	0.517914	3.68042e-05
2191.78	0.517853	1.13831e-05
2194.16	0.517151	0.0129822
2196.48	0.518036	3.11279e-05
2198.8	0.516937	1.67542e-05
2201.18	0.516968	0.0106598
2203.5	0.516907	3.42102e-05
2205.84	-0.698608	-0.0234161
2208.2	0.517914	0.00820923
2210.52	0.51828	2.16064e-05
2212.86	-0.697571	-0.0199707
2215.22	0.518158	0.00171448
2217.54	0.516937	2.9541e-05
2219.88	-0.697693	-0.0173462
2222.24	0.516876	0.000299408
2224.56	0.518188	1.97144e-05
2226.9	-0.69812	-0.0152985
2229.26	0.517853	0.000139008
2231.58	0.516937	2.45361e-05
2233.94	0.000753784	0.00651062
2236.28	0.517761	9.2804e-05
2238.6	0.516693	2.38647e-05
2240.96	0.000286865	0.00540558
2243.3	0.516815	7.52563e-05
2245.62	0.517029	2.07214e-05
2247.98	-0.000100708	0.00450745
2250.32	0.516815	6.09131e-05
2252.64	0.517883	1.33057e-05
2255	-0.000146484	0.00373108
2257.34	0.51767	4.65698e-05
2259.66	0.518127	1.18103e-05
2262.04	0.516052	0.0156952
2264.36	0.517456	3.94592e-05
2266.68	0.516907	1.89209e-05
2269.06	0.51709	0.0130707
2271.38	0.516846	4.15649e-05
2273.7	0.516785	1.90735e-05
2276.08	0.516632	0.0107971
2278.4	0.518097	2.82898e-05
2280.74	-0.697327	-0.0234955
2283.1	0.516449	0.00842896
2285.42	0.517181	3.12805e-05
2287.76	-0.698944	-0.0200928
2290.12	0.518158	0.00272614
2292.44	0.516907	2.93884e-05
2294.78	-0.698334	-0.0174896
2297.14	0.516815	0.00034671
2299.46	0.517181	2.62451e-05
2301.8	-0.698547	-0.0154541
2304.16	0.518341	0.000149536
2306.48	0.516693	2.69165e-05
2306.6	0.516815	1.828e-05

File: pulses_3000_to_4000.txt
Time (s)	WE(1).Potential (V)	WE(1).Current (A)
2319.03	-0.698669	-0.0234406
2321.39	0.517151	0.00838013
2323.71	0.518097	2.34375e-05
2326.05	-0.697601	-0.0201477
2328.41	0.517761	0.00284576
2330.73	0.517059	2.92053e-05
2333.07	-0.697571	-0.0175568
2335.43	0.517883	0.000356476
2337.75	0.517487	2.39258e-05
2340.09	-0.698334	-0.0155273
2342.45	0.518158	0.000154724
2344.77	0.517578	2.04468e-05
2347.13	0.000140381	0.00631073
2349.47	0.517914	9.80835e-05
2351.79	0.516754	2.46277e-05
2354.15	-0.000357056	0.00525208
2356.49	0.516602	7.90405e-05
2358.81	0.518127	1.49841e-05
2361.17	-0.000161743	0.00438385
2363.51	0.517151	6.08215e-05
2365.83	0.518158	1.28174e-05
2368.19	-0.000372314	0.00363892
2370.53	0.518127	4.54712e-05
2372.85	0.51825	1.16882e-05
2375.23	0.517242	0.0156982
2377.55	0.516998	4.52881e-05
2379.87	0.518158	1.01624e-05
2382.25	0.517029	0.0131531
2384.57	0.518127	3.23486e-05
2386.89	0.516968	1.58691e-05
2389.27	0.516296	0.0109344
2391.59	0.51767	2.99377e-05
2393.93	-0.697235	-0.023584
2396.29	0.516937	0.0086792
2398.61	0.51712	3.09448e-05
2400.95	-0.698883	-0.0202606
2403.31	0.516937	0.00448334
2405.63	0.51709	2.8656e-05
2407.97	-0.698486	-0.0176941
2410.33	0.516846	0.000426208
2412.65	0.516815	2.88391e-05
2414.99	-0.698639	-0.0156738
2417.35	0.518127	0.000171814
2419.67	0.517059	2.75879e-05
2422.03	0.000408936	0.00619385
2424.37	0.517853	0.00010437
2426.69	0.517517	2.01111e-05
2429.05	0.000769043	0.00515137
2431.39	0.517395	7.75757e-05
2433.71	0.51825	1.50452e-05
2436.07	0.000204468	0.00430847
2438.41	0.516876	6.42395e-05
2440.73	0.516876	2.2583e-05
2443.09	0.000183105	0.00358826
2445.43	0.516754	5.54504e-05
2447.75	0.518219	1.3092e-05
2450.13	0.516907	0.0157196
2452.45	0.516998	4.73328e-05
2454.77	0.517029	1.9165e-05
2457.15	0.517426	0.0132202
2459.47	0.517426	3.79944e-05
2461.79	0.517975	1.10168e-05
2464.17	0.517639	0.011026
2466.49	0.51712	3.67126e-05
2468.83	-0.698517	-0.0236359
2471.19	0.516449	0.00884094
2473.51	0.517334	2.92053e-05
2475.85	-0.698578	-0.0203552
2478.21	0.517731	0.00530731
2480.53	0.517334	3.03345e-05
2482.87	-0.699005	-0.0178131
2485.23	0.518311	0.000492554
2487.55	0.518188	1.94092e-05
2489.89	-0.697784	-0.0158112
2492.25	0.516846	0.0001987
2494.57	0.516846	2.6062e-05
2496.93	0.000466919	0.0060672
2499.27	0.517151	0.000116119
2501.59	0.51767	2.01416e-05
2503.95	0.000839233	0.0050528
2506.29	0.518188	7.6416e-05
2508.61	0.517181	2.05688e-05
2510.97	0.000708008	0.00422302
2513.31	0.517181	6.39038e-05
2515.63	0.517273	2.16064e-05
2517.99	0.000872803	0.00351837
2520.33	0.518127	4.64478e-05
2522.65	0.517181	1.79138e-05
2525.03	0.517059	0.0157349
2527.35	0.517365	4.38538e-05
2529.67	0.518097	1.32446e-05
2532.05	0.517487	0.0132629
2534.37	0.517517	3.83606e-05
2536.69	0.516876	1.94397e-05
2539.07	0.517609	0.0111176
2541.39	0.518188	3.10364e-05
2543.73	-0.698578	-0.0236877
2546.09	0.516449	0.00898132
2548.41	0.517151	3.33557e-05
2550.75	-0.698486	-0.0204498
2553.11	0.51709	0.00584473
2555.43	0.518127	2.3468e-05
2557.77	-0.698364	-0.0179443
2560.13	0.516907	0.0005896
2562.45	0.516907	2.82593e-05
2564.79	-0.699127	-0.0159332
2567.15	0.517212	0.000214264
2569.47	0.51709	2.3407e-05
2571.83	-0.000384521	0.00595398
2574.17	0.518158	0.000114441
2576.49	0.518066	1.77917e-05
2578.85	-0.000299072	0.00496307
2581.19	0.517853	8.0719e-05
2583.51	0.516998	2.22778e-05
2585.87	-0.000466919	0.00415375
2588.21	0.517609	6.43311e-05
2590.53	0.516815	2.21558e-05
2592.89	-3.35693e-05	0.00346161
2595.23	0.516876	5.75256e-05
2597.55	0.516754	2.30103e-05
2599.93	0.517456	0.0157288
2602.25	0.516754	5.10864e-05
2604.57	0.518158	1.13525e-05
2606.95	0.517487	0.0133087
2609.27	0.517914	3.66211e-05
2611.59	0.517883	1.33667e-05
2613.97	0.516296	0.0112183
2616.29	0.517487	3.34778e-05
2618.63	-0.697571	-0.0237488
2620.99	0.516449	0.00913086
2623.31	0.516785	3.64075e-05
2625.65	-0.698822	-0.0205475
2628.01	0.51767	0.00623566
2630.33	0.51825	2.35291e-05
2632.67	-0.698547	-0.0180756
2635.03	0.517181	0.000698242
2637.35	0.517151	2.82593e-05
2639.69	-0.698486	-0.0160736
2642.05	0.516815	0.000241577
2644.37	0.516998	2.74048e-05
2646.73	0.000646973	0.0058316
2649.07	0.51828	0.000125336
2651.39	0.51767	2.16064e-05
2653.75	-0.000308228	0.00486694
2656.09	0.516998	9.15833e-05
2658.41	0.517395	1.97754e-05
2660.77	0.00083313	0.00407074
2663.11	0.516846	7.17773e-05
2665.43	0.518127	1.474e-05
2667.79	-2.13623e-05	0.00339935
2670.13	0.517761	5.29785e-05
2672.45	0.516815	2.18811e-05
2674.83	0.516907	0.015744
2677.15	0.517426	4.88281e-05
2679.47	0.517944	1.19324e-05
2681.85	0.517395	0.0133453
2684.17	0.517944	3.68652e-05
2686.49	0.517334	1.80359e-05
2688.87	0.516937	0.0112854
2691.19	0.518127	3.04565e-05
2693.53	-0.697601	-0.0237915
2695.89	0.517761	0.00923767
2698.21	0.517456	3.06702e-05
2700.55	-0.697754	-0.0206299
2702.91	0.516632	0.00654724
2705.23	0.516876	3.08838e-05
2707.57	-0.698517	-0.0181732
2709.93	0.517426	0.000817566
2712.25	0.517731	2.54517e-05
2714.59	-0.698456	-0.0162048
2716.95	0.516937	0.000267365
2719.27	0.518158	1.91345e-05
2721.63	-0.000656128	0.00571747
2723.97	0.517456	0.000139557
2726.29	0.518036	1.71204e-05
2728.65	-0.000213623	0.00476624
2730.99	0.517853	8.87756e-05
2733.31	0.516754	2.5116e-05
2735.67	-0.000411987	0.00400238
2738.01	0.517365	6.82068e-05
2740.33	0.517731	1.69983e-05
2742.69	-0.000524902	0.00334656
2745.03	0.516876	5.95703e-05
2747.35	0.516937	2.15454e-05
2749.73	0.516785	0.0157349
2752.05	0.518188	4.19617e-05
2754.37	0.518311	1.10474e-05
2756.75	0.516266	0.0133881
2759.07	0.516815	4.57153e-05
2761.39	0.516846	2.14539e-05
2763.77	0.516815	0.0113525
2766.09	0.518158	3.10974e-05
2768.43	-0.697357	-0.0238403
2770.79	0.516724	0.00935059
2773.11	0.517914	3.04565e-05
2775.45	-0.698029	-0.0207245
2777.81	0.516907	0.00680542
2780.13	0.516876	3.18298e-05
2782.47	-0.698975	-0.0182739
2784.83	0.516876	0.000968628
2787.15	0.517578	2.63672e-05
2789.49	-0.698425	-0.0163177
2791.85	0.517151	0.000296265
2794.17	0.516937	2.82593e-05
2796.53	0.000476074	0.00560333
2798.87	0.517426	0.000149933
2801.19	0.516937	2.63367e-05
2803.55	0.000222778	0.00467682
2805.89	0.517059	0.000101715
2808.21	0.518066	1.66931e-05
2810.57	0.00032959	0.00391785
2812.91	0.517303	7.36084e-05
2815.23	0.516846	2.4231e-05
2817.59	0.000732422	0.00328186
2819.93	0.516876	6.23474e-05
2822.25	0.517273	1.95923e-05
2824.63	0.516724	0.0157349
2826.95	0.517609	4.46472e-05
2829.27	0.518127	1.27869e-05
2831.65	0.516876	0.0134277
2833.97	0.517395	4.27856e-05
2836.29	0.518005	1.14136e-05
2838.67	0.51709	0.0114197
2840.99	0.516846	3.9917e-05
2843.33	-0.697754	-0.0238159
2845.69	0.517395	0.00943909
2848.01	0.51709	3.42407e-05
2850.35	-0.697754	-0.020752
2852.71	0.517029	0.0069397
2855.03	0.516907	3.39355e-05
2857.37	-0.69873	-0.018338
2859.73	0.516968	0.0010675
2862.05	0.517883	2.33765e-05
2864.39	-0.698975	-0.0163971
2866.75	0.518158	0.000313904
2869.07	0.516815	2.92053e-05
2871.43	-0.00032959	0.00553192
2873.77	0.517578	0.000156281
2876.09	0.518036	1.87378e-05
2878.45	0.000524902	0.004609375
2880.79	0.517883	0.00010022
2883.11	0.516937	2.4231e-05
2885.47	0.000292969	0.00387421
2887.81	0.516815	7.76062e-05
2890.13	0.516876	2.46887e-05
2892.49	0.000726318	0.00324402
2894.83	0.517944	5.4718e-05
2897.15	0.517761	1.59912e-05
2899.53	0.516998	0.0157349
2901.85	0.517914	4.61121e-05
2904.17	0.518097	1.33972e-05
2906.55	0.516968	0.0134521
2908.87	0.516907	4.52881e-05
2911.19	0.518158	1.05896e-05
2913.57	0.517578	0.0114807
2915.89	0.516846	4.13208e-05
2918.23	-0.698334	-0.0238647
2920.59	0.517578	0.00953369
2922.91	0.517151	3.50342e-05
2925.25	-0.697754	-0.0208313
2927.61	0.516907	0.00713348
2929.93	0.517395	3.02429e-05
2932.27	-0.698486	-0.0184357
2934.63	0.517639	0.00122833
2936.95	0.517487	2.4231e-05
2939.29	-0.697784	-0.0165009
2941.65	0.517578	0.000352386
2943.97	0.517181	2.78931e-05
2946.33	0.00045166	0.00541748
2948.67	0.518188	0.000164001
2950.99	0.517944	2.02026e-05
2953.35	0.000497437	0.00452576
2955.69	0.517975	0.000102875
2958.01	0.517761	1.69983e-05
2960.37	0.000372314	0.00380402
2962.71	0.517426	7.75757e-05
2965.03	0.518097	1.5686e-05
2967.39	-0.000204468	0.00319855
2969.73	0.516815	6.39648e-05
2972.05	0.517212	1.953125E-05
2974.43	0.517273	0.015744
2976.75	0.517334	5.22766e-05
2979.07	0.518097	1.40381e-05
2981.45	0.517487	0.0134979
2983.77	0.516876	4.63257e-05
2986.09	0.516937	1.98975e-05
2988.47	0.516327	0.0115448
2990.79	0.51712	3.97034e-05
2993.13	-0.697815	-0.0239197
2995.49	0.51767	0.00962219
2997.81	0.517273	3.57056e-05
3000.15	-0.69809	-0.0209167
3002.51	0.517731	0.00731812
3004.83	0.518097	2.56042e-05
3007.17	-0.699066	-0.0185547
3009.53	0.51712	0.00145813
3011.85	0.516907	3.10059e-05
3014.19	-0.698242	-0.016629
3016.55	0.517242	0.00038974
3018.87	0.516724	2.96936e-05
3018.99	0.517273	1.78528e-05