Folder: electrochromicfilms/Edgar/20240531/20240531/electrodeposition_pulsed_potential_20240531_A (part 2)

File: pulses_2000_to_3000.txt
Time (s)	WE(1).Potential (V)	WE(1).Current (A)
1608.82	-0.697449	-0.0198486
1611.18	0.482697	0.000150635
1613.5	0.483246	1.49841e-05
1615.84	-0.697998	-0.0152405
1618.2	0.483643	7.94983e-05
1620.52	0.484406	4.94385e-06
1622.86	-0.69812	-0.0123962
1625.22	0.484283	5.01404e-05
1627.54	0.482758	1.58997e-05
1629.88	-0.699738	-0.0102661
1632.24	0.484192	3.70789e-05
1634.56	0.483002	1.4679e-05
1636.92	-0.000726318	0.0101715
1639.26	0.482574	3.84216e-05
1641.58	0.484406	2.19727e-06
1643.94	-0.000741577	0.0078064
1646.28	0.482574	3.2196e-05
1648.6	0.484314	1.52588e-06
1650.96	-0.000769043	0.00604736
1653.3	0.482971	2.56958e-05
1655.62	0.484406	0
1657.98	0.000674438	0.00461578
1660.32	0.484283	1.29089e-05
1662.64	0.483093	8.78906e-06
1665.02	0.483673	0.0126862
1667.34	0.484314	9.8877e-06
1669.66	0.484222	8.23975e-07
1672.04	0.484222	0.00759888
1674.36	0.482727	2.11182e-05
1676.68	0.484131	7.62939e-07
1679.06	0.483032	0.000490967
1681.38	0.483002	1.67847e-05
1683.72	-0.697784	-0.0200378
1686.08	0.482727	0.000173187
1688.4	0.482727	1.68457e-05
1690.74	-0.699371	-0.0155243
1693.1	0.483917	8.70667e-05
1695.42	0.48288	1.63269e-05
1697.76	-0.698334	-0.012677
1700.12	0.482819	6.32629e-05
1702.44	0.48407	9.49097e-06
1704.78	-0.699677	-0.0105286
1707.14	0.482758	4.83398e-05
1709.46	0.483429	1.08032e-05
1711.82	-0.000521851	0.0100769
1714.16	0.483459	3.34167e-05
1716.48	0.484375	1.64795e-06
1718.84	0.000671387	0.00776672
1721.18	0.483673	2.36816e-05
1723.5	0.483398	9.97925e-06
1725.86	0.000247192	0.0060556
1728.2	0.482941	2.6947e-05
1730.52	0.483765	4.39453e-06
1732.88	-0.000454712	0.00467255
1735.22	0.483582	1.86157e-05
1737.54	0.484161	4.18091e-06
1739.92	0.482819	0.0129974
1742.24	0.484009	1.2207e-05
1744.56	0.483582	5.58472e-06
1746.94	0.484039	0.00818481
1749.26	0.483887	1.26648e-05
1751.58	0.483398	7.20215e-06
1753.96	0.483307	0.000628967
1756.28	0.483551	1.4679e-05
1758.62	-0.698822	-0.0203369
1760.98	0.483551	0.000187042
1763.3	0.48288	1.51062e-05
1765.64	-0.697815	-0.0158173
1768	0.482941	0.000101868
1770.32	0.482941	1.41907e-05
1772.66	-0.698853	-0.0129639
1775.02	0.4841	5.76782e-05
1777.34	0.483795	8.08716e-06
1779.68	-0.698151	-0.0108337
1782.04	0.482727	5.1178e-05
1784.36	0.483398	1.16882e-05
1786.72	-2.44141e-05	0.00993042
1789.06	0.484222	3.10974e-05
1791.38	0.484283	4.11987e-06
1793.74	-0.000540161	0.00773621
1796.08	0.483368	2.91748e-05
1798.4	0.484161	4.05884e-06
1800.76	0.000723267	0.0060498
1803.1	0.483765	2.23999e-05
1805.42	0.483398	7.50732e-06
1807.78	0.000836182	0.00469452
1810.12	0.483856	1.67847e-05
1812.44	0.483826	6.37817e-06
1814.82	0.483307	0.0132507
1817.14	0.484222	1.37939e-05
1819.46	0.483276	5.76782e-06
1821.84	0.482452	0.00868225
1824.16	0.483002	2.13013e-05
1826.48	0.483246	7.2937e-06
1828.86	0.484039	0.000891724
1831.18	0.483276	1.78223e-05
1833.52	-0.69751	-0.0206299
1835.88	0.483368	0.000212585
1838.2	0.483551	1.08948e-05
1840.54	-0.697968	-0.0161011
1842.9	0.482941	0.000109589
1845.22	0.483124	1.4801e-05
1847.56	-0.699463	-0.0132538
1849.92	0.483154	6.90613e-05
1852.24	0.483612	9.58252e-06
1854.58	-0.699036	-0.0111023
1856.94	0.483063	5.05981e-05
1859.26	0.483734	8.23975e-06
1861.62	0.00055542	0.0098053
1863.96	0.484192	3.2959e-05
1866.28	0.483246	1.01929e-05
1868.64	0.000201416	0.00766296
1870.98	0.484192	2.55737e-05
1873.3	0.483826	4.3335e-06
1875.66	0.000698853	0.00604156
1878	0.483582	2.3468e-05
1880.32	0.483948	7.01904e-06
1882.68	0.000872803	0.00471771
1885.02	0.483459	2.16675e-05
1887.34	0.484131	2.31934e-06
1889.72	0.482208	0.0134888
1892.04	0.483276	2.0752e-05
1894.36	0.484192	2.2583e-06
1896.74	0.483276	0.00910034
1899.06	0.484375	9.3689e-06
1901.38	0.484161	6.10352e-06
1903.76	0.483368	0.00163818
1906.08	0.48291	1.87683e-05
1908.42	-0.698242	-0.0209045
1910.78	0.484161	0.000233337
1913.1	0.483521	1.27563e-05
1915.44	-0.697571	-0.0163727
1917.8	0.482727	0.000118073
1920.12	0.484436	6.31714e-06
1922.46	-0.698792	-0.0135223
1924.82	0.482727	7.54395e-05
1927.14	0.483276	1.28174e-05
1929.48	-0.6987	-0.01138
1931.84	0.483215	5.31006e-05
1934.16	0.48288	1.61133e-05
1936.52	0.000735474	0.00966492
1938.86	0.483795	3.86658e-05
1941.18	0.483521	7.08008e-06
1943.54	-0.000799561	0.00761719
1945.88	0.482697	3.67737e-05
1948.2	0.484344	3.26538e-06
1950.56	0.000912476	0.00602051
1952.9	0.483612	2.38647e-05
1955.22	0.482574	1.50757e-05
1957.58	0.000210571	0.00473846
1959.92	0.483826	2.07825e-05
1962.24	0.482819	1.13831e-05
1964.62	0.482391	0.0136963
1966.94	0.48291	2.38342e-05
1969.26	0.483826	5.7373e-06
1971.64	0.484039	0.00948181
1973.96	0.483582	1.62964e-05
1976.28	0.483429	7.53784e-06
1978.66	0.48291	0.00371735
1980.98	0.483124	1.7395e-05
1983.32	-0.69873	-0.0211517
1985.68	0.482727	0.000278839
1988	0.482605	1.76086e-05
1990.34	-0.699432	-0.0166382
1992.7	0.482605	0.000131256
1995.02	0.483887	6.13403e-06
1997.36	-0.698242	-0.0138153
1999.72	0.484192	7.10449e-05
2002.04	0.483032	1.78833e-05
2004.38	-0.699707	-0.0116394
2006.74	0.48291	5.59387e-05
2009.06	0.484467	4.57764e-06
2011.42	0.000228882	0.00952454
2013.76	0.483215	4.09851e-05
2016.08	0.484131	6.46973e-06
2018.44	0.000604248	0.00752258
2020.78	0.482635	3.84827e-05
2023.1	0.4841	5.18799e-06
2025.46	-0.000213623	0.0060025
2027.8	0.483002	2.91443e-05
2030.12	0.483887	6.95801e-06
2032.48	0.00083313	0.00473511
2034.82	0.484039	1.94397e-05
2037.14	0.483643	8.81958e-06
2039.52	0.482117	0.0139069
2041.84	0.48288	2.29492e-05
2044.16	0.483124	9.73511e-06
2046.54	0.483429	0.00983887
2048.86	0.484161	1.32141e-05
2051.18	0.483612	4.57764e-06
2053.56	0.483917	0.00517059
2055.88	0.483368	1.50146e-05
2058.22	-0.698975	-0.0213837
2060.58	0.484192	0.000315826
2062.9	0.484375	8.66699e-06
2065.24	-0.69812	-0.0169067
2067.6	0.483826	0.000135223
2069.92	0.484406	7.1106e-06
2072.26	-0.697998	-0.0140686
2074.62	0.484253	7.53479e-05
2076.94	0.484344	5.82886e-06
2079.28	-0.697998	-0.0119141
2081.64	0.482635	6.10352e-05
2083.96	0.483948	7.41577e-06
2086.32	-0.000369263	0.00938416
2088.66	0.483917	4.01306e-05
2090.98	0.483185	1.23596e-05
2093.34	-0.000527954	0.00746063
2095.68	0.484253	2.72217e-05
2098	0.483795	9.64355e-06
2100.36	-0.000549316	0.00597168
2102.7	0.482697	3.31421e-05
2105.02	0.484009	3.08228e-06
2107.38	0.000473022	0.00473541
2109.72	0.484436	1.74866e-05
2112.04	0.483856	5.98145e-06
2114.42	0.483459	0.0140747
2116.74	0.484253	1.5564e-05
2119.06	0.483978	4.3335e-06
2121.44	0.483398	0.010144
2123.76	0.483368	2.16675e-05
2126.08	0.482788	1.27563e-05
2128.46	0.483887	0.00599609
2130.78	0.482788	2.05688e-05
2133.12	-0.698029	-0.0216278
2135.48	0.483643	0.000384552
2137.8	0.484192	1.13525e-05
2140.14	-0.699188	-0.0171539
2142.5	0.484344	0.000147034
2144.82	0.484283	7.99561e-06
2147.16	-0.697754	-0.014325
2149.52	0.482819	9.29565e-05
2151.84	0.484131	7.53784e-06
2154.18	-0.699371	-0.0121582
2156.54	0.48349	5.74951e-05
2158.86	0.484253	6.43921e-06
2161.22	0.000753784	0.00924683
2163.56	0.483948	3.80859e-05
2165.88	0.484375	4.85229e-06
2168.24	-0.000839233	0.00737274
2170.58	0.483398	3.66516e-05
2172.9	0.483246	9.12476e-06
2175.26	-0.000686646	0.00592499
2177.6	0.482727	3.4729e-05
2179.92	0.483521	1.10168e-05
2182.28	0.000289917	0.00472412
2184.62	0.483154	2.62451e-05
2186.94	0.482574	1.49841e-05
2189.32	0.483246	0.0142273
2191.64	0.484406	1.65405e-05
2193.96	0.483398	9.42993e-06
2196.34	0.483215	0.0104248
2198.66	0.483704	1.68762e-05
2200.98	0.484344	3.08228e-06
2203.36	0.483093	0.00662842
2205.68	0.483704	1.43433e-05
2208.02	-0.699036	-0.0218414
2210.38	0.483398	0.000494598
2212.7	0.484253	9.15527e-06
2215.04	-0.69928	-0.0173981
2217.4	0.482788	0.000173065
2219.72	0.483704	1.09558e-05
2222.06	-0.699463	-0.014566
2224.42	0.483673	9.1156e-05
2226.74	0.483368	1.32751e-05
2229.08	-0.697998	-0.0124207
2231.44	0.484253	5.71594e-05
2233.76	0.483673	8.91113e-06
2236.12	0.00027771	0.00909119
2238.46	0.483398	4.65393e-05
2240.78	0.483032	1.36719e-05
2243.14	-0.000350952	0.00728607
2245.48	0.483093	3.86963e-05
2247.8	0.484406	7.41577e-06
2250.16	0.000338745	0.00587799
2252.5	0.484528	2.41699e-05
2254.82	0.482788	1.44348e-05
2257.18	0.000286865	0.00471466
2259.52	0.484009	2.44751e-05
2261.84	0.483643	6.83594e-06
2264.22	0.483734	0.0143768
2266.54	0.483582	2.07825e-05
2268.86	0.483093	1.13525e-05
2271.24	0.483826	0.010675
2273.56	0.484253	1.54114e-05
2275.88	0.483429	7.87354e-06
2278.26	0.482422	0.00712189
2280.58	0.483246	2.05383e-05
2282.92	-0.697418	-0.022049
2285.28	0.48291	0.000649414
2287.6	0.484131	1.09253e-05
2289.94	-0.698578	-0.0176544
2292.3	0.483124	0.000192535
2294.62	0.483246	1.83105e-05
2296.96	-0.699402	-0.0148071
2299.32	0.483643	9.77783e-05
2301.64	0.484406	8.72803e-06
2303.98	-0.698425	-0.012677
2306.34	0.484039	6.17371e-05
2308.66	0.484222	7.93457e-06
2308.78	0.484467	3.90625e-06

File: pulses_3000_to_4000.txt
Time (s)	WE(1).Potential (V)	WE(1).Current (A)
2321.5	-0.697479	-0.0221069
2323.86	0.484253	0.000645142
2326.18	0.484314	9.49097e-06
2328.52	-0.697968	-0.0177368
2330.88	0.483124	0.000198303
2333.2	0.482605	1.9043e-05
2335.54	-0.699371	-0.0148895
2337.9	0.483826	9.94263e-05
2340.22	0.484375	6.7749e-06
2342.56	-0.699524	-0.0127563
2344.92	0.484161	6.26221e-05
2347.24	0.484375	6.43921e-06
2349.6	-0.00102539	0.00889282
2351.94	0.483551	4.97742e-05
2354.26	0.483704	1.09863e-05
2356.62	-0.000164795	0.00714844
2358.96	0.48288	4.3335e-05
2361.28	0.484436	4.73022e-06
2363.64	0.000912476	0.0057959
2365.98	0.484375	2.53296e-05
2368.3	0.483124	1.25122e-05
2370.66	-3.05176e-05	0.00467346
2373	0.482697	3.05786e-05
2375.32	0.484039	5.18799e-06
2377.7	0.482452	0.0145325
2380.02	0.482666	3.00598e-05
2382.34	0.483276	1.08032e-05
2384.72	0.482269	0.010968
2387.04	0.482697	2.54517e-05
2389.36	0.483521	7.53784e-06
2391.74	0.484009	0.0076416
2394.06	0.482788	2.37427e-05
2396.4	-0.69754	-0.0223053
2398.76	0.48288	0.00100311
2401.08	0.482758	2.12097e-05
2403.42	-0.699158	-0.0179504
2405.78	0.482727	0.000230804
2408.1	0.484344	1.00708e-05
2410.44	-0.698181	-0.0151398
2412.8	0.484314	0.000107452
2415.12	0.48291	1.86768e-05
2417.46	-0.699066	-0.012973
2419.82	0.483215	7.2113e-05
2422.14	0.483734	1.2207e-05
2424.5	-0.000479126	0.0087738
2426.84	0.484314	4.62036e-05
2429.16	0.482697	1.87683e-05
2431.52	-0.000680542	0.00708435
2433.86	0.482788	4.40369e-05
2436.18	0.483704	9.64355e-06
2438.54	-0.000698853	0.00577148
2440.88	0.48288	3.6499e-05
2443.2	0.482849	1.49231e-05
2445.56	0.0003479	0.00465942
2447.9	0.484039	2.37122e-05
2450.22	0.484375	3.96729e-06
2452.6	0.482635	0.0146759
2454.92	0.483337	2.35901e-05
2457.24	0.484009	6.04248e-06
2459.62	0.483032	0.0111847
2461.94	0.484192	1.66016e-05
2464.26	0.484009	4.5166e-06
2466.64	0.483704	0.00799255
2468.96	0.484222	1.50452e-05
2471.3	-0.6987	-0.0224701
2473.66	0.484222	0.00160095
2475.98	0.483673	1.44653e-05
2478.32	-0.699188	-0.0181732
2480.68	0.484192	0.000256683
2483	0.483429	1.62659e-05
2485.34	-0.699127	-0.0153534
2487.7	0.484192	0.00011792
2490.02	0.482758	2.03857e-05
2492.36	-0.699188	-0.0131927
2494.72	0.484161	7.27234e-05
2497.04	0.482697	2.04468e-05
2499.4	-0.000305176	0.00861816
2501.74	0.484253	4.90417e-05
2504.06	0.483978	1.08643e-05
2506.42	0.000527954	0.00698914
2508.76	0.482727	4.73328e-05
2511.08	0.483551	1.04065e-05
2513.44	0.000759888	0.00570801
2515.78	0.482788	3.79639e-05
2518.1	0.483124	1.48621e-05
2520.46	0.000384521	0.00463257
2522.8	0.484253	2.23389e-05
2525.12	0.48291	1.41296e-05
2527.5	0.482422	0.0147675
2529.82	0.482758	3.0304e-05
2532.14	0.482635	1.54419e-05
2534.52	0.483856	0.0113586
2536.84	0.483856	1.86462e-05
2539.16	0.483765	7.26318e-06
2541.54	0.482758	0.00831299
2543.86	0.483795	1.69373e-05
2546.2	-0.697357	-0.0226379
2548.56	0.484131	0.00292114
2550.88	0.484375	1.19324e-05
2553.22	-0.698334	-0.0183868
2555.58	0.483795	0.000300049
2557.9	0.48288	1.95618e-05
2560.24	-0.698334	-0.015564
2562.6	0.484344	0.000130951
2564.92	0.484283	9.3689e-06
2567.26	-0.697876	-0.0134216
2569.62	0.484253	7.84302e-05
2571.94	0.483765	1.26648e-05
2574.3	-0.00101929	0.00849609
2576.64	0.483673	5.70374e-05
2578.96	0.484222	6.2561e-06
2581.32	0.000585937	0.00689972
2583.66	0.484192	3.77197e-05
2585.98	0.483368	1.26343e-05
2588.34	-0.000137329	0.0056546
2590.68	0.483887	3.09753e-05
2593	0.484497	5.70679e-06
2595.36	-0.000167847	0.00459991
2597.7	0.483978	2.67334e-05
2600.02	0.484344	5.92041e-06
2602.4	0.483673	0.0148529
2604.72	0.484314	2.14233e-05
2607.04	0.484283	3.57056e-06
2609.42	0.482605	0.0115417
2611.74	0.483948	1.92261e-05
2614.06	0.482697	1.53503e-05
2616.44	0.483093	0.00856934
2618.76	0.483215	2.16675e-05
2621.1	-0.697906	-0.0227814
2623.46	0.482635	0.00429871
2625.78	0.484406	1.12305e-05
2628.12	-0.697815	-0.0185883
2630.48	0.484161	0.000357056
2632.8	0.483643	1.50146e-05
2635.14	-0.697754	-0.0157562
2637.5	0.484283	0.000141815
2639.82	0.483643	1.71814e-05
2642.16	-0.697998	-0.0136261
2644.52	0.484344	8.21228e-05
2646.84	0.483917	1.05286e-05
2649.2	-0.000744629	0.00836487
2651.54	0.484314	5.34973e-05
2653.86	0.483002	1.32446e-05
2656.22	-4.88281e-05	0.00681213
2658.56	0.483917	4.08325e-05
2660.88	0.482788	1.62659e-05
2663.24	0.000549316	0.00559601
2665.58	0.482788	4.12292e-05
2667.9	0.483276	1.2146e-05
2670.26	0.000234985	0.00456573
2672.6	0.482788	3.59802e-05
2674.92	0.484314	5.46265e-06
2677.3	0.482208	0.0149384
2679.62	0.483887	2.45361e-05
2681.94	0.484161	6.22559e-06
2684.32	0.483185	0.0116943
2686.64	0.484131	1.69067e-05
2688.96	0.483826	5.95093e-06
2691.34	0.483856	0.00881042
2693.66	0.483368	2.04163e-05
2696	-0.698578	-0.0229309
2698.36	0.482971	0.00512238
2700.68	0.484009	1.62354e-05
2703.02	-0.699005	-0.0187683
2705.38	0.483948	0.000428284
2707.7	0.484253	1.3092e-05
2710.04	-0.697754	-0.0159607
2712.4	0.484009	0.000162689
2714.72	0.483917	1.3092e-05
2717.06	-0.698364	-0.0138245
2719.42	0.483368	9.64966e-05
2721.74	0.483887	1.12e-05
2724.1	-3.35693e-05	0.00822144
2726.44	0.482849	6.82678e-05
2728.76	0.482666	1.9165e-05
2731.12	-0.000714111	0.00672089
2733.46	0.482758	5.21545e-05
2735.78	0.483643	1.2207e-05
2738.14	0.000790405	0.00552643
2740.48	0.483551	3.75977e-05
2742.8	0.483459	1.27258e-05
2745.16	-0.000570679	0.0045343
2747.5	0.482788	3.59497e-05
2749.82	0.482574	1.58386e-05
2752.2	0.483551	0.0149994
2754.52	0.483459	2.81677e-05
2756.84	0.482727	1.53198e-05
2759.22	0.4823	0.0118286
2761.54	0.482666	2.88086e-05
2763.86	0.483185	1.37329e-05
2766.24	0.48233	0.00903625
2768.56	0.484161	1.72424e-05
2770.9	-0.69751	-0.0230591
2773.26	0.48288	0.00565674
2775.58	0.484314	1.34583e-05
2777.92	-0.698059	-0.0189423
2780.28	0.484253	0.000519409
2782.6	0.484161	1.3916e-05
2784.94	-0.697815	-0.0161346
2787.3	0.484314	0.000179016
2789.62	0.482727	2.23083e-05
2791.96	-0.699341	-0.0139984
2794.32	0.484253	9.52454e-05
2796.64	0.48349	1.46484e-05
2799	0.000500488	0.00809326
2801.34	0.483765	6.57959e-05
2803.66	0.483093	1.60217e-05
2806.02	0.000109863	0.00662689
2808.36	0.484467	4.28162e-05
2810.68	0.484344	1.06812e-05
2813.04	-0.000415039	0.00547241
2815.38	0.48288	4.43726e-05
2817.7	0.482727	1.651e-05
2820.06	0.000646973	0.00448792
2822.4	0.484192	2.83813e-05
2824.72	0.483765	1.06201e-05
2827.1	0.482391	0.0150635
2829.42	0.48288	3.17078e-05
2831.74	0.482971	1.46484e-05
2834.12	0.482635	0.0119446
2836.44	0.484314	1.93481e-05
2838.76	0.483124	1.06812e-05
2841.14	0.482422	0.00922546
2843.46	0.483948	1.98364e-05
2845.8	-0.698059	-0.0231781
2848.16	0.482727	0.00608307
2850.48	0.483215	2.30713e-05
2852.82	-0.697571	-0.0191101
2855.18	0.483673	0.000636902
2857.5	0.483521	1.76086e-05
2859.84	-0.697815	-0.0163116
2862.2	0.484161	0.000203003
2864.52	0.484131	1.18713e-05
2866.86	-0.697968	-0.0141907
2869.22	0.483582	0.000106628
2871.54	0.48407	1.11694e-05
2873.9	-3.96729e-05	0.00797119
2876.24	0.482971	7.32422e-05
2878.56	0.482788	1.93787e-05
2880.92	0.000720215	0.0065329
2883.26	0.483368	5.48096e-05
2885.58	0.48288	1.78528e-05
2887.94	-0.000421143	0.00541351
2890.28	0.483063	4.26025e-05
2892.6	0.482727	1.68762e-05
2894.96	1.83105e-05	0.00444946
2897.3	0.48291	3.66821e-05
2899.62	0.483124	1.23901e-05
2902	0.483521	0.0151154
2904.32	0.483215	2.93579e-05
2906.64	0.48288	1.31531e-05
2909.02	0.483887	0.0120544
2911.34	0.484467	1.93787e-05
2913.66	0.484253	6.50024e-06
2916.04	0.483643	0.00940552
2918.36	0.482758	2.57874e-05
2920.7	-0.698853	-0.0232666
2923.06	0.484283	0.00641266
2925.38	0.483002	2.39868e-05
2927.72	-0.699219	-0.0192627
2930.08	0.482758	0.000784912
2932.4	0.483765	1.58997e-05
2934.74	-0.69928	-0.0164581
2937.1	0.482697	0.000238159
2939.42	0.483215	1.70593e-05
2941.76	-0.698364	-0.0143707
2944.12	0.482727	0.000124695
2946.44	0.483093	1.84937e-05
2948.8	-0.000930786	0.00784607
2951.14	0.483398	7.39136e-05
2953.46	0.484222	9.64355e-06
2955.82	0.000854492	0.00644226
2958.16	0.483521	5.24597e-05
2960.48	0.484344	8.72803e-06
2962.84	-0.00083313	0.00534393
2965.18	0.484406	3.53699e-05
2967.5	0.4841	8.63647e-06
2969.86	-0.000674438	0.00440308
2972.2	0.482758	4.03442e-05
2974.52	0.482666	1.38245e-05
2976.9	0.482544	0.0151672
2979.22	0.482971	3.02734e-05
2981.54	0.484344	7.04956e-06
2983.92	0.482208	0.0121613
2986.24	0.48291	2.92053e-05
2988.56	0.484283	5.7373e-06
2990.94	0.483093	0.00956421
2993.26	0.48288	2.73743e-05
2995.6	-0.69751	-0.0233765
2997.96	0.483582	0.00672607
3000.28	0.482788	2.50854e-05
3002.62	-0.698578	-0.0194214
3004.98	0.484161	0.000971375
3007.3	0.482666	2.37732e-05
3009.64	-0.698059	-0.0166321
3012	0.482849	0.000270081
3014.32	0.483246	1.85852e-05
3016.66	-0.698975	-0.0145172
3019.02	0.482971	0.000132172
3021.34	0.482697	2.22168e-05
3021.46	0.482941	1.23596e-05