Folder: electrochromicfilms/Edgar/20240531/20240531/electrodeposition_pulsed_potential_20240531_A (part 3)

File: pulses_4000_to_5000.txt
Time (s)	WE(1).Potential (V)	WE(1).Current (A)
3034.28	-0.698578	-0.0233612
3036.64	0.484222	0.00667755
3038.96	0.48288	2.59094e-05
3041.3	-0.697784	-0.019458
3043.66	0.484314	0.000992737
3045.98	0.482697	2.35596e-05
3048.32	-0.698761	-0.0166931
3050.68	0.482727	0.000278961
3053	0.482697	2.20032e-05
3055.34	-0.698242	-0.0145721
3057.7	0.484253	0.000128143
3060.02	0.484009	1.32751e-05
3062.38	-0.000961304	0.00767212
3064.72	0.484375	7.57141e-05
3067.04	0.482605	2.04468e-05
3069.4	0.000878906	0.00631134
3071.74	0.483978	5.36194e-05
3074.06	0.484283	8.54492e-06
3076.42	-0.000405884	0.00524536
3078.76	0.484161	3.9093e-05
3081.08	0.482788	1.87378e-05
3083.44	-0.000753784	0.00432739
3085.78	0.482941	3.98865e-05
3088.1	0.483215	1.26648e-05
3090.48	0.482239	0.0152161
3092.8	0.484253	2.49634e-05
3095.12	0.482788	1.55945e-05
3097.5	0.482513	0.0122681
3099.82	0.482727	3.2135e-05
3102.14	0.484375	5.52368e-06
3104.52	0.483093	0.00974731
3106.84	0.483307	2.62451e-05
3109.18	-0.697693	-0.0235016
3111.54	0.482483	0.00707062
3113.86	0.483582	2.03552e-05
3116.2	-0.697784	-0.0196381
3118.56	0.483521	0.00133118
3120.88	0.483856	1.9165e-05
3123.22	-0.698334	-0.0168427
3125.58	0.482727	0.00031839
3127.9	0.484436	1.2207e-05
3130.24	-0.699432	-0.014743
3132.6	0.482666	0.000152679
3134.92	0.482666	2.20947e-05
3137.28	-0.000946045	0.00757446
3139.62	0.484192	8.44727e-05
3141.94	0.482758	2.09961e-05
3144.3	0.00101013	0.00624207
3146.64	0.483734	5.859375E-05
3148.96	0.483215	1.19934e-05
3151.32	-0.000552368	0.00519928
3153.66	0.483551	4.77905e-05
3155.98	0.48349	1.28784e-05
3158.34	0.00039978	0.00429382
3160.68	0.482727	4.29688e-05
3163	0.482666	1.78223e-05
3165.38	0.48291	0.0152618
3167.7	0.484436	2.58179e-05
3170.02	0.483093	1.4679e-05
3172.4	0.48349	0.0123535
3174.72	0.483429	2.65503e-05
3177.04	0.482727	1.71814e-05
3179.42	0.482269	0.00989685
3181.74	0.482513	2.96021e-05
3184.08	-0.698669	-0.0236145
3186.44	0.483765	0.00730042
3188.76	0.484222	1.70288e-05
3191.1	-0.698181	-0.019751
3193.46	0.483459	0.00179321
3195.78	0.483826	1.49841e-05
3198.12	-0.69812	-0.0170105
3200.48	0.484314	0.000354309
3202.8	0.483917	1.66931e-05
3205.14	-0.697968	-0.0149078
3207.5	0.483368	0.000161682
3209.82	0.483765	1.51978e-05
3212.18	0.000482178	0.00744781
3214.52	0.482758	9.72595e-05
3216.84	0.484192	1.05591e-05
3219.2	-0.000689697	0.00616241
3221.54	0.483734	6.36902e-05
3223.86	0.482666	2.11182e-05
3226.22	0.000906372	0.00512299
3228.56	0.484436	4.4342e-05
3230.88	0.483093	1.60522e-05
3233.24	-0.000546265	0.00424835
3235.58	0.484253	3.32642e-05
3237.9	0.484253	7.08008e-06
3240.28	0.483673	0.0152802
3242.6	0.483917	3.03345e-05
3244.92	0.482605	1.77612e-05
3247.3	0.483215	0.012439
3249.62	0.482819	3.2959e-05
3251.94	0.482697	1.4679e-05
3254.32	0.482605	0.010025
3256.64	0.484314	2.07214e-05
3258.98	-0.698059	-0.0236908
3261.34	0.484039	0.00750122
3263.66	0.484344	1.63574e-05
3266	-0.698303	-0.0198761
3268.36	0.48349	0.00244171
3270.68	0.483948	1.71509e-05
3273.02	-0.697937	-0.0171295
3275.38	0.484283	0.00040451
3277.7	0.484436	1.18408e-05
3280.04	-0.698364	-0.0150391
3282.4	0.484344	0.000169189
3284.72	0.482666	2.25525e-05
3287.08	0.000924683	0.00733307
3289.42	0.482666	0.00010733
3291.74	0.483887	1.34277e-05
3294.1	-0.000384521	0.00607422
3296.44	0.48407	6.44226e-05
3298.76	0.482697	1.94702e-05
3301.12	0.000280762	0.00505951
3303.46	0.483826	4.63562e-05
3305.78	0.482788	1.73645e-05
3308.14	-0.000643921	0.00420227
3310.48	0.483185	4.16565e-05
3312.8	0.483337	1.17798e-05
3315.18	0.481964	0.0153137
3317.5	0.482758	3.9032e-05
3319.82	0.483276	1.09253e-05
3322.2	0.482178	0.0125244
3324.52	0.483582	2.65808e-05
3326.84	0.483826	1.01624e-05
3329.22	0.482269	0.0101379
3331.54	0.484344	1.953125E-05
3333.88	-0.698914	-0.0237885
3336.24	0.482819	0.00769348
3338.56	0.484222	1.77002e-05
3340.9	-0.697784	-0.0200317
3343.26	0.484375	0.00334473
3345.58	0.482727	2.71301e-05
3347.92	-0.699219	-0.0172668
3350.28	0.48291	0.000479126
3352.6	0.48288	2.27356e-05
3354.94	-0.698212	-0.0151947
3357.3	0.482727	0.000201843
3359.62	0.484467	1.25427e-05
3361.98	-0.000799561	0.00723572
3364.32	0.483398	0.000110443
3366.64	0.483765	1.65405e-05
3369	-0.000646973	0.00599182
3371.34	0.482697	7.95288e-05
3373.66	0.484375	8.81958e-06
3376.02	0.000958252	0.00499023
3378.36	0.484253	4.70581e-05
3380.68	0.482849	1.91956e-05
3383.04	-0.000183105	0.00415497
3385.38	0.483154	4.1748e-05
3387.7	0.484283	7.99561e-06
3390.08	0.482758	0.015332
3392.4	0.482666	4.02222e-05
3394.72	0.482849	1.59302e-05
3397.1	0.483124	0.0125885
3399.42	0.483948	2.63062e-05
3401.74	0.483032	1.46484e-05
3404.12	0.483459	0.0102142
3406.44	0.483673	2.46887e-05
3408.78	-0.698669	-0.0238556
3411.14	0.484009	0.00786133
3413.46	0.484344	1.74255e-05
3415.8	-0.698059	-0.0201202
3418.16	0.483582	0.00410095
3420.48	0.483521	1.80054e-05
3422.82	-0.699219	-0.0174042
3425.18	0.482758	0.000547485
3427.5	0.48407	1.59607e-05
3429.84	-0.697845	-0.0153259
3432.2	0.483398	0.000216766
3434.52	0.482727	2.28271e-05
3436.88	0.00039978	0.00712189
3439.22	0.483704	0.000118073
3441.54	0.482788	2.26746e-05
3443.9	-0.0003479	0.00590271
3446.24	0.484406	7.1106e-05
3448.56	0.482758	1.98059e-05
3450.92	0.000918579	0.00492737
3453.26	0.482635	6.1676e-05
3455.58	0.482727	2.01721e-05
3457.94	0.000506592	0.00409515
3460.28	0.484222	4.03442e-05
3462.6	0.483429	1.37939e-05
3464.98	0.482819	0.0153595
3467.3	0.483917	3.07007e-05
3469.62	0.483521	1.09863e-05
3472	0.482117	0.0126465
3474.32	0.483124	3.23181e-05
3476.64	0.484528	7.1106e-06
3479.02	0.483521	0.0103149
3481.34	0.48291	3.02429e-05
3483.68	-0.698853	-0.0239258
3486.04	0.4823	0.00802917
3488.36	0.484375	1.75171e-05
3490.7	-0.698669	-0.0202423
3493.06	0.48349	0.00465607
3495.38	0.48291	2.41394e-05
3497.72	-0.699188	-0.0175201
3500.08	0.484253	0.000618591
3502.4	0.482574	2.57568e-05
3504.74	-0.697723	-0.0154633
3507.1	0.483887	0.000235687
3509.42	0.48349	1.97144e-05
3511.78	-0.000482178	0.00702026
3514.12	0.484344	0.000120697
3516.44	0.482758	2.29187e-05
3518.8	0.000720215	0.00581635
3521.14	0.48291	8.56934e-05
3523.46	0.482666	2.21863e-05
3525.82	0.000964355	0.00485809
3528.16	0.483215	6.38733e-05
3530.48	0.4841	1.04065e-05
3532.84	0.000912476	0.00404205
3535.18	0.483612	4.70581e-05
3537.5	0.484344	6.71387e-06
3539.88	0.482147	0.0153625
3542.2	0.484436	3.09753e-05
3544.52	0.483246	1.58386e-05
3546.9	0.482208	0.0126862
3549.22	0.484009	2.63062e-05
3551.54	0.482635	1.77002e-05
3553.92	0.483917	0.0104034
3556.24	0.482727	3.2959e-05
3558.58	-0.697906	-0.023999
3560.94	0.482452	0.0081665
3563.26	0.4841	2.12097e-05
3565.6	-0.699036	-0.0203247
3567.96	0.482758	0.00505096
3570.28	0.48291	2.67029e-05
3572.62	-0.697968	-0.0176483
3574.98	0.482941	0.000716248
3577.3	0.483582	2.02026e-05
3579.64	-0.699341	-0.015564
3582	0.48288	0.000271332
3584.32	0.48291	2.15759e-05
3586.68	-0.000753784	0.00691681
3589.02	0.484192	0.000132538
3591.34	0.482819	2.11182e-05
3593.7	0.000997925	0.00573242
3596.04	0.483978	8.28552e-05
3598.36	0.484375	1.16577e-05
3600.72	-0.00078125	0.00480377
3603.06	0.482788	6.59485e-05
3605.38	0.482971	1.49231e-05
3607.74	-0.000683594	0.00400024
3610.08	0.484253	4.22974e-05
3612.4	0.482941	1.74255e-05
3614.78	0.482086	0.0153717
3617.1	0.484253	3.15552e-05
3619.42	0.482697	1.89209e-05
3621.8	0.483765	0.0127258
3624.12	0.482758	3.87573e-05
3626.44	0.483276	1.48315e-05
3628.82	0.483459	0.0104858
3631.14	0.484192	2.35901e-05
3633.48	-0.698792	-0.0240356
3635.84	0.483978	0.00827637
3638.16	0.482727	2.97546e-05
3640.5	-0.697449	-0.0204468
3642.86	0.483246	0.0053775
3645.18	0.483856	1.91345e-05
3647.52	-0.69754	-0.0177704
3649.88	0.484344	0.000802002
3652.2	0.482758	2.44446e-05
3654.54	-0.697815	-0.0157135
3656.9	0.484406	0.000288239
3659.22	0.483826	1.64795e-05
3661.58	0.00038147	0.00681885
3663.92	0.483582	0.000147766
3666.24	0.484436	1.11694e-05
3668.6	0.000314331	0.0056601
3670.94	0.484009	8.99353e-05
3673.26	0.483124	1.73645e-05
3675.62	-0.0006073	0.00474518
3677.96	0.483246	6.60706e-05
3680.28	0.483246	1.73645e-05
3682.64	0.00065918	0.00394867
3684.98	0.48291	5.22156e-05
3687.3	0.483337	1.7395e-05
3689.68	0.482269	0.01539
3692	0.484283	3.36304e-05
3694.32	0.483521	1.27563e-05
3696.7	0.483002	0.0127747
3699.02	0.484314	2.771e-05
3701.34	0.483124	1.48621e-05
3703.72	0.482727	0.0105682
3706.04	0.482697	3.42407e-05
3708.38	-0.698608	-0.0241119
3710.74	0.482239	0.0084198
3713.06	0.484314	1.97754e-05
3715.4	-0.698486	-0.0205414
3717.76	0.484283	0.00564972
3720.08	0.484375	1.58386e-05
3722.42	-0.697571	-0.0178864
3724.78	0.484406	0.000908203
3727.1	0.483398	2.28271e-05
3729.44	-0.69928	-0.0158234
3731.8	0.482697	0.000329498
3734.12	0.483612	1.67542e-05
3734.24	0.483124	1.41907e-05

File: pulses_5000_to_6000.txt
Time (s)	WE(1).Potential (V)	WE(1).Current (A)
3747.02	-0.697571	-0.0240662
3749.38	0.482483	0.00839844
3751.7	0.483948	2.02026e-05
3754.04	-0.699188	-0.0205719
3756.4	0.484222	0.00564392
3758.72	0.48288	2.56958e-05
3761.06	-0.697845	-0.0179291
3763.42	0.482605	0.000945129
3765.74	0.483063	2.50244e-05
3768.08	-0.697662	-0.0158783
3770.44	0.484467	0.000330475
3772.76	0.482697	2.42615e-05
3775.12	-0.000878906	0.00668243
3777.46	0.484406	0.000159729
3779.78	0.482819	2.13928e-05
3782.14	0.000912476	0.00554474
3784.48	0.484253	9.74121e-05
3786.8	0.484344	1.28174e-05
3789.16	-0.000344849	0.00465271
3791.5	0.483093	7.27539e-05
3793.82	0.483551	1.70593e-05
3796.18	0.000650024	0.00387909
3798.52	0.482758	5.70374e-05
3800.84	0.483704	9.85718e-06
3803.22	0.482239	0.0154053
3805.54	0.482605	4.7821e-05
3807.86	0.483154	1.62659e-05
3810.24	0.483765	0.0128357
3812.56	0.484406	2.88086e-05
3814.88	0.483368	1.36414e-05
3817.26	0.483276	0.010672
3819.58	0.484436	2.32849e-05
3821.92	-0.698578	-0.0242004
3824.28	0.482391	0.00856934
3826.6	0.482849	3.04565e-05
3828.94	-0.698914	-0.0206635
3831.3	0.484222	0.00595917
3833.62	0.484283	1.80664e-05
3835.96	-0.69754	-0.0180359
3838.32	0.483917	0.00108185
3840.64	0.483765	1.87073e-05
3842.98	-0.697815	-0.0159821
3845.34	0.482788	0.000380524
3847.66	0.483002	2.19116e-05
3850.02	-0.000558472	0.00659424
3852.36	0.482758	0.000187897
3854.68	0.484497	1.3092e-05
3857.04	0.000921631	0.00547363
3859.38	0.484344	0.0001026
3861.7	0.482697	2.32239e-05
3864.06	-0.000424194	0.00459717
3866.4	0.483887	7.14111e-05
3868.72	0.484009	1.35498e-05
3871.08	-0.000769043	0.00384308
3873.42	0.483063	5.88989e-05
3875.74	0.482788	1.96533e-05
3878.12	0.483337	0.0154053
3880.44	0.484375	3.84521e-05
3882.76	0.484375	9.73511e-06
3885.14	0.483032	0.0128906
3887.46	0.482758	4.11682e-05
3889.78	0.483795	9.3689e-06
3892.16	0.483887	0.0107361
3894.48	0.484222	2.41089e-05
3896.82	-0.697632	-0.0242767
3899.18	0.482849	0.00866699
3901.5	0.483917	2.33765e-05
3903.84	-0.698029	-0.0207703
3906.2	0.483887	0.00617065
3908.52	0.484406	1.80969e-05
3910.86	-0.699066	-0.0181335
3913.22	0.482697	0.00123962
3915.54	0.48291	2.5177e-05
3917.88	-0.69931	-0.016095
3920.24	0.482697	0.000419525
3922.56	0.483337	2.03857e-05
3924.92	-0.000735474	0.00651184
3927.26	0.482819	0.000203278
3929.58	0.482941	2.02942e-05
3931.94	-0.000515747	0.00542023
3934.28	0.482727	0.000121948
3936.6	0.482727	2.21863e-05
3938.96	-0.000534058	0.0045459
3941.3	0.484314	7.12891e-05
3943.62	0.482849	1.953125E-05
3945.98	-0.000775146	0.00380341
3948.32	0.484436	5.1178e-05
3950.64	0.483704	1.40991e-05
3953.02	0.483429	0.0154144
3955.34	0.484375	3.90015e-05
3957.66	0.483093	1.66931e-05
3960.04	0.483032	0.0129181
3962.36	0.48291	4.05579e-05
3964.68	0.482605	1.97449e-05
3967.06	0.483917	0.0108063
3969.38	0.483154	3.34473e-05
3971.72	-0.698914	-0.0243073
3974.08	0.483917	0.00876465
3976.4	0.484283	2.24609e-05
3978.74	-0.699036	-0.0208374
3981.1	0.482605	0.00636383
3983.42	0.483643	2.37122e-05
3985.76	-0.699097	-0.0182343
3988.12	0.4841	0.0014093
3990.44	0.482788	2.948e-05
3992.78	-0.69928	-0.0161896
3995.14	0.484406	0.000446686
3997.46	0.484375	1.27869e-05
3999.82	1.83105e-05	0.00641113
4002.16	0.483063	0.000218475
4004.48	0.483215	2.05078e-05
4006.84	0.00078125	0.00533417
4009.18	0.483917	0.000123016
4011.5	0.483521	1.63879e-05
4013.86	-0.000549316	0.00448456
4016.2	0.484192	7.82471e-05
4018.52	0.482971	1.94092e-05
4020.88	-0.000518799	0.00375061
4023.22	0.483978	5.75256e-05
4025.54	0.483765	1.26038e-05
4027.92	0.483276	0.0154053
4030.24	0.483276	4.52576e-05
4032.56	0.482788	1.81885e-05
4034.94	0.483368	0.0129578
4037.26	0.483185	4.05273e-05
4039.58	0.484375	7.41577e-06
4041.96	0.482178	0.0108734
4044.28	0.482666	3.80249e-05
4046.62	-0.698456	-0.0243317
4048.98	0.483856	0.00885315
4051.3	0.482574	3.31421e-05
4053.64	-0.697266	-0.0209137
4056	0.482544	0.0065155
4058.32	0.483734	2.20337e-05
4060.66	-0.6987	-0.0183228
4063.02	0.483856	0.00158295
4065.34	0.483215	2.50244e-05
4067.68	-0.698181	-0.0163055
4070.04	0.483124	0.000496979
4072.36	0.483948	1.75476e-05
4074.72	-0.000585937	0.00633179
4077.06	0.483215	0.000233704
4079.38	0.48288	2.36206e-05
4081.74	-0.000164795	0.00526703
4084.08	0.484314	0.000130676
4086.4	0.483978	1.42517e-05
4088.76	0.000671387	0.00441559
4091.1	0.48291	9.12476e-05
4093.42	0.482666	2.09961e-05
4095.78	-6.71387e-05	0.00370972
4098.12	0.483917	5.9906e-05
4100.44	0.484344	9.0332e-06
4102.82	0.482605	0.0154205
4105.14	0.482788	5.53284e-05
4107.46	0.482727	2.09656e-05
4109.84	0.483429	0.012973
4112.16	0.482819	4.36707e-05
4114.48	0.483063	1.58997e-05
4116.86	0.483948	0.0109161
4119.18	0.484192	2.89917e-05
4121.52	-0.69873	-0.0243835
4123.88	0.48233	0.00895081
4126.2	0.48291	3.32642e-05
4128.54	-0.697296	-0.020993
4130.9	0.483215	0.00667175
4133.22	0.482819	3.01514e-05
4135.56	-0.697662	-0.0184326
4137.92	0.482605	0.00184723
4140.24	0.484406	1.79443e-05
4142.58	-0.697754	-0.016391
4144.94	0.483917	0.000541077
4147.26	0.484192	1.86157e-05
4149.62	0.000765991	0.00623993
4151.96	0.483612	0.00025296
4154.28	0.483032	2.28271e-05
4156.64	0.000650024	0.00520264
4158.98	0.483215	0.00014447
4161.3	0.483856	1.50757e-05
4163.66	0.000881958	0.0043634
4166	0.484375	8.69446e-05
4168.32	0.484283	1.09253e-05
4170.68	-0.000335693	0.00366364
4173.02	0.482941	7.12585e-05
4175.34	0.484344	1.18713e-05
4177.72	0.483215	0.0154205
4180.04	0.482849	5.42297e-05
4182.36	0.484406	7.69043e-06
4184.74	0.483826	0.0130127
4187.06	0.482697	4.66309e-05
4189.38	0.484344	8.27026e-06
4191.76	0.483612	0.0109741
4194.08	0.48407	2.92358e-05
4196.42	-0.697205	-0.0244354
4198.78	0.482178	0.0090271
4201.1	0.482697	3.56445e-05
4203.44	-0.697357	-0.0210632
4205.8	0.483368	0.00679993
4208.12	0.483032	3.16467e-05
4210.46	-0.697479	-0.0185059
4212.82	0.483673	0.00210083
4215.14	0.482819	2.6947e-05
4217.48	-0.699066	-0.0164825
4219.84	0.484344	0.00057373
4222.16	0.483551	2.0874e-05
4224.52	-0.000466919	0.00620483
4226.86	0.483124	0.000267395
4229.18	0.482819	2.36511e-05
4231.54	0.0006073	0.00516388
4233.88	0.483398	0.000151428
4236.2	0.484192	1.43127e-05
4238.56	-9.15527e-06	0.00434784
4240.9	0.484192	9.021e-05
4243.22	0.483154	1.7395e-05
4245.58	0.000814819	0.00364227
4247.92	0.482819	7.20825e-05
4250.24	0.48407	1.18103e-05
4252.62	0.482941	0.0154449
4254.94	0.483063	5.46875e-05
4257.26	0.48291	1.953125E-05
4259.64	0.483215	0.0130585
4261.96	0.482758	4.53796e-05
4264.28	0.484283	8.5144e-06
4266.66	0.483124	0.0110107
4268.98	0.484406	2.85034e-05
4271.32	-0.698761	-0.0244232
4273.68	0.483917	0.00906982
4276	0.483887	2.81677e-05
4278.34	-0.698181	-0.0210724
4280.7	0.483459	0.00682587
4283.02	0.482788	3.2196e-05
4285.36	-0.69873	-0.0185486
4287.72	0.483795	0.0020462
4290.04	0.483459	2.40479e-05
4292.38	-0.69809	-0.0165314
4294.74	0.482727	0.000602417
4297.06	0.484375	1.54114e-05
4299.42	0.0003479	0.00614532
4301.76	0.484406	0.000273285
4304.08	0.484314	1.43127e-05
4306.44	-0.000805664	0.00512207
4308.78	0.484192	0.000150757
4311.1	0.483521	1.72729e-05
4313.46	0.000778198	0.00429779
4315.8	0.483643	9.87244e-05
4318.12	0.48288	2.36206e-05
4320.48	0.000927734	0.00360535
4322.82	0.482758	7.66907e-05
4325.14	0.483429	1.61743e-05
4327.52	0.481964	0.0154602
4329.84	0.483459	5.24902e-05
4332.16	0.482819	2.04468e-05
4334.54	0.483459	0.0130768
4336.86	0.483978	3.92456e-05
4339.18	0.484283	9.0332e-06
4341.56	0.482666	0.0110657
4343.88	0.482727	4.10461e-05
4346.22	-0.698303	-0.0244598
4348.58	0.482391	0.00913086
4350.9	0.483673	2.77405e-05
4353.24	-0.698639	-0.0211395
4355.6	0.484192	0.00693542
4357.92	0.484009	2.40173e-05
4360.26	-0.699188	-0.0186127
4362.62	0.483063	0.00232849
4364.94	0.483826	2.15454e-05
4367.28	-0.699097	-0.0166077
4369.64	0.484131	0.0006427
4371.96	0.483673	1.89209e-05
4374.32	0.000250244	0.00606476
4376.66	0.482727	0.000304779
4378.98	0.482697	2.48718e-05
4381.34	0.000738525	0.005047
4383.68	0.483002	0.000171906
4386	0.483612	1.70898e-05
4388.36	0.000891113	0.00424469
4390.7	0.484344	0.000100433
4393.02	0.482941	2.03247e-05
4395.38	0.000604248	0.00356506
4397.72	0.482819	7.92542e-05
4400.04	0.483582	1.72729e-05
4402.42	0.482483	0.0154602
4404.74	0.483704	5.56641e-05
4407.06	0.482727	1.9928e-05
4409.44	0.483643	0.0130981
4411.76	0.482697	4.92249e-05
4414.08	0.484344	7.84302e-06
4416.46	0.482971	0.0111145
4418.78	0.482819	4.0741e-05
4421.12	-0.697205	-0.0245056
4423.48	0.482697	0.0092041
4425.8	0.484375	2.60315e-05
4428.14	-0.698853	-0.0211975
4430.5	0.484222	0.00705383
4432.82	0.484344	2.28882e-05
4435.16	-0.698242	-0.0187073
4437.52	0.482758	0.0027002
4439.84	0.482819	2.93884e-05
4442.18	-0.698914	-0.0167175
4444.54	0.4841	0.000693359
4446.86	0.483154	2.28271e-05
4446.98	0.484192	7.59888e-06