Folder: electrochromicfilms/Edgar/20240531/20240531/electrodeposition_pulsed_potential_20240531_B

File: OCP_1
Time (s)	WE(1).Potential (V)
2.15422	0.484741
3.15422	0.485046
4.15422	0.485321
5.15422	0.485596
6.15422	0.48584
7.15422	0.486115
8.15422	0.486359
9.15422	0.486603
10.1542	0.486877
11.1542	0.487122
12.1542	0.487366
13.1542	0.48761
14.1542	0.487823
15.1542	0.488098
16.1542	0.488373
17.1542	0.488617
18.1542	0.488861
19.1542	0.489136
20.1542	0.48938
21.1542	0.489655
22.1542	0.489899
23.1542	0.490112
24.1542	0.490387
25.1542	0.490601
26.1542	0.490814
27.1542	0.491089
28.1542	0.491302
29.1542	0.491516
30.1542	0.49176
31.1542	0.492004
32.1542	0.492249
33.1542	0.492462
34.1542	0.492676
35.1542	0.49292
36.1542	0.493164
37.1542	0.493408
38.1542	0.493683
39.1542	0.493958
40.1542	0.494202
41.1542	0.494476
42.1542	0.49469
43.1542	0.494873
44.1542	0.495056
45.1542	0.49527
46.1542	0.495453
47.1542	0.495636
48.1542	0.49588
49.1542	0.496063
50.1542	0.496246
51.1542	0.49646
52.1542	0.496643
53.1542	0.496857
54.1542	0.497101
55.1542	0.497314
56.1542	0.497528
57.1542	0.497742
58.1542	0.497955
59.1542	0.498138
60.1542	0.498322
61.1542	0.498535
62.1542	0.498718
63.1542	0.498932
64.1542	0.499268
65.1542	0.499573
66.1542	0.499878
67.1542	0.499878
68.1542	0.500183
69.1542	0.500183
70.1542	0.500488
71.1542	0.500793
72.1542	0.500793
73.1542	0.501099
74.1542	0.501099
75.1542	0.501404
76.1542	0.501709
77.1542	0.502014
78.1542	0.502014
79.1542	0.502319
80.1542	0.502319
81.1542	0.502625
82.1542	0.502625
83.1542	0.50293
84.1542	0.503235
85.1542	0.503235
86.1542	0.50354
87.1542	0.50354
88.1542	0.503845
89.1542	0.50415
90.1542	0.50415
91.1542	0.504456
92.1542	0.504456
93.1542	0.504761
94.1542	0.504761
95.1542	0.505066
96.1542	0.505371
97.1542	0.505371
98.1542	0.505676
99.1542	0.505676
100.154	0.505981
101.154	0.505981
102.154	0.506287
103.154	0.506287
104.154	0.506287
105.154	0.506592
106.154	0.506897
107.154	0.506897
108.154	0.507202
109.154	0.507202
110.154	0.507507
111.154	0.507507
112.154	0.5078125
113.154	0.5078125
114.154	0.508118
115.154	0.508423
116.154	0.508423
117.154	0.508728
118.154	0.508728
119.154	0.509033
120.154	0.509033
121.154	0.509338
122.154	0.509338
123.154	0.509644
124.154	0.509644
125.154	0.509949
126.154	0.509949
127.154	0.510254
128.154	0.510254
129.154	0.510559
130.154	0.510559
131.154	0.510864
132.154	0.510864
133.154	0.511169
134.154	0.511169
135.154	0.511475
136.154	0.511475
137.154	0.51178
138.154	0.51178
139.154	0.512085
140.154	0.512085
141.154	0.51239
142.154	0.51239
143.154	0.512695
144.154	0.512695
145.154	0.513
146.154	0.513
147.154	0.513306
148.154	0.513306
149.154	0.513306
150.154	0.513611
151.154	0.513611
152.154	0.513916
153.154	0.513916
154.154	0.514221
155.154	0.514221
156.154	0.514526
157.154	0.514526
158.154	0.514526
159.154	0.514832
160.154	0.514832
161.154	0.515137
162.154	0.515137
163.154	0.515442
164.154	0.515442
165.154	0.515747
166.154	0.515747
167.154	0.516052
168.154	0.516052
169.154	0.516357
170.154	0.516357
171.154	0.516663
172.154	0.516663
173.154	0.516663
174.154	0.516968
175.154	0.516968
176.154	0.517273
177.154	0.517273
178.154	0.517578
179.154	0.517578
180.154	0.517578
181.154	0.517883

File: OCP_3
Time (s)	WE(1).Potential (V)
4456.91	0.505066
4457.91	0.495514
4458.91	0.488403
4459.91	0.48291
4460.91	0.478729
4461.91	0.475555
4462.91	0.473145
4463.91	0.471344
4464.91	0.470001
4465.91	0.469055
4466.91	0.468414
4467.91	0.467987
4468.91	0.467743
4469.91	0.467621
4470.91	0.467621
4471.91	0.467712
4472.91	0.467804
4473.91	0.468018
4474.91	0.468201
4475.91	0.468445
4476.91	0.468719
4477.91	0.468964
4478.91	0.469208
4479.91	0.469513
4480.91	0.469788
4481.91	0.470093
4482.91	0.470367
4483.91	0.470642
4484.91	0.470886
4485.91	0.47113
4486.91	0.471344
4487.91	0.471558
4488.91	0.471771
4489.91	0.471954
4490.91	0.472137
4491.91	0.47229
4492.91	0.472443
4493.91	0.472626
4494.91	0.472748
4495.91	0.4729
4496.91	0.473022
4497.91	0.473145
4498.91	0.473297
4499.91	0.473419
4500.91	0.473541
4501.91	0.473663
4502.91	0.473785
4503.91	0.473907
4504.91	0.473999
4505.91	0.474121
4506.91	0.474213
4507.91	0.474304
4508.91	0.474426
4509.91	0.474518
4510.91	0.474609
4511.91	0.474701
4512.91	0.474792
4513.91	0.474884
4514.91	0.474945
4515.91	0.475006
4516.91	0.475037
4517.91	0.475067
4518.91	0.475037
4519.91	0.475067
4520.91	0.475128
4521.91	0.475128
4522.91	0.475189
4523.91	0.47522
4524.91	0.47525
4525.91	0.475281
4526.91	0.475342
4527.91	0.475372
4528.91	0.475403
4529.91	0.475433
4530.91	0.475433
4531.91	0.475464
4532.91	0.475525
4533.91	0.475555
4534.91	0.475586
4535.91	0.475586
4536.91	0.475586
4537.91	0.475586
4538.91	0.475616
4539.91	0.475616
4540.91	0.475647
4541.91	0.475647
4542.91	0.475647
4543.91	0.475677
4544.91	0.475708
4545.91	0.475739
4546.91	0.475739
4547.91	0.475769
4548.91	0.4758
4549.91	0.47583
4550.91	0.47583
4551.91	0.47583
4552.91	0.475861
4553.91	0.475861
4554.91	0.475891
4555.91	0.475891
4556.91	0.475891
4557.91	0.475922
4558.91	0.475952
4559.91	0.475952
4560.91	0.476196
4561.91	0.476654
4562.91	0.477386
4563.91	0.477631
4564.91	0.477478
4565.91	0.477356
4566.91	0.477264
4567.91	0.477142
4568.91	0.47702
4569.91	0.476959
4570.91	0.476837
4571.91	0.476776
4572.91	0.476715
4573.91	0.476654
4574.91	0.476624
4575.91	0.4765625
4576.91	0.476532
4577.91	0.476501
4578.91	0.476501
4579.91	0.476471
4580.91	0.476471
4581.91	0.476471
4582.91	0.47644
4583.91	0.47644
4584.91	0.47644
4585.91	0.47644
4586.91	0.47641
4587.91	0.476379
4588.91	0.47641
4589.91	0.476379
4590.91	0.476379
4591.91	0.476379
4592.91	0.476379
4593.91	0.476379
4594.91	0.476349
4595.91	0.476349
4596.91	0.476349
4597.91	0.476379
4598.91	0.476379
4599.91	0.47641
4600.91	0.476105
4601.91	0.475494
4602.91	0.474823
4603.91	0.474243
4604.91	0.473938
4605.91	0.473938
4606.91	0.473969
4607.91	0.473755
4608.91	0.473907
4609.91	0.473999
4610.91	0.47406
4611.91	0.474121
4612.91	0.474182
4613.91	0.474091
4614.91	0.474213
4615.91	0.473755
4616.91	0.473938
4617.91	0.473999
4618.91	0.47406
4619.91	0.474121
4620.91	0.474152
4621.91	0.474182
4622.91	0.474213
4623.91	0.474213
4624.91	0.474243
4625.91	0.474243
4626.91	0.474243
4627.91	0.473419
4628.91	0.473663
4629.91	0.473755
4630.91	0.473785
4631.91	0.473816
4632.91	0.473877
4633.91	0.473907
4634.91	0.473938
4635.91	0.473938

File: pulses_0_to_1000.txt
Time (s)	WE(1).Potential (V)	WE(1).Current (A)
181.812	-0.698639	-0.00304138
184.172	0.517639	1.28174e-05
186.492	0.516754	8.48389e-06
188.832	-0.699951	-0.0028064
191.192	0.516815	2.771e-05
193.512	0.516724	1.25427e-05
195.852	-0.69986	-0.00333435
198.212	0.51709	2.9541e-05
200.532	0.51709	1.24817e-05
202.872	-0.699585	-0.00376801
205.232	0.518127	1.24207e-05
207.552	0.517731	6.31714e-06
209.912	-7.32422e-05	0.00307343
212.252	0.516876	1.61743e-05
214.572	0.518188	-5.79834e-07
216.932	0.000189209	0.000579834
219.272	0.518005	4.69971e-06
221.592	0.517212	3.9978e-06
223.952	7.32422e-05	0.00015271
226.292	0.516907	1.05896e-05
228.612	0.518005	-2.10571e-06
230.972	0.000753784	1.9989e-05
233.312	0.516815	8.5144e-06
235.632	0.517181	2.34985e-06
238.012	0.518372	0.000172546
240.332	0.518341	-1.09863e-06
242.652	0.517181	4.3335e-06
245.032	0.516693	6.53076e-05
247.352	0.51712	4.27246e-06
249.672	0.518005	-3.05176e-06
252.052	0.517731	3.01208e-05
254.372	0.517944	-1.2207e-06
256.712	-0.699585	-0.0108551
259.072	0.516846	2.41089e-05
261.392	0.516998	4.48608e-06
263.732	-0.698273	-0.00761108
266.092	0.517914	1.01318e-05
268.412	0.518219	-4.39453e-06
270.752	-0.699219	-0.00617615
273.112	0.517334	8.39233e-06
275.432	0.516724	4.11987e-06
277.772	-0.698761	-0.00540985
280.132	0.516724	1.17798e-05
282.452	0.518188	-4.11987e-06
284.812	0.00057373	0.00892639
287.152	0.516785	1.08643e-05
289.472	0.51825	-3.08228e-06
291.832	-0.000360107	0.00492859
294.172	0.516998	7.35474e-06
296.492	0.517731	-1.58691e-06
298.852	0.00100708	0.00228363
301.192	0.517487	3.78418e-06
303.512	0.518036	-3.9978e-06
305.872	0.000933838	0.000932007
308.212	0.516815	4.45557e-06
310.532	0.517273	-2.44141e-07
312.912	0.518311	0.000631714
315.232	0.517883	-2.2583e-06
317.552	0.516754	4.15039e-06
319.932	0.517151	0.000135559
322.252	0.516815	7.8125e-06
324.572	0.516724	4.5166e-06
326.952	0.517273	5.87463e-05
329.272	0.517975	-2.01416e-06
331.612	-0.699066	-0.0134552
333.972	0.518158	2.67944e-05
336.292	0.518219	-3.02124e-06
338.632	-0.69812	-0.00950623
340.992	0.518219	1.36108e-05
343.312	0.518097	-1.98364e-06
345.652	-0.698212	-0.00747192
348.012	0.517853	1.17493e-05
350.332	0.517731	-4.57764e-07
352.672	-0.699493	-0.00631714
355.032	0.516998	1.41296e-05
357.352	0.518188	-3.23486e-06
359.712	0.000259399	0.00968628
362.052	0.518219	3.44849e-06
364.372	0.517731	-2.22778e-06
366.732	-0.000305176	0.00613556
369.072	0.516998	9.42993e-06
371.392	0.517944	-2.44141e-06
373.752	0.000302124	0.00358765
376.092	0.51825	-1.31226e-06
378.412	0.517181	4.85229e-06
380.772	-0.000326538	0.00184357
383.112	0.517212	6.40869e-06
385.432	0.518036	-3.32642e-06
387.812	0.517731	0.00170471
390.132	0.517334	5.61523e-06
392.452	0.516937	4.63867e-06
394.832	0.516846	0.000204865
397.152	0.51709	4.88281e-06
399.472	0.517456	1.67847e-06
401.852	0.517975	7.32727e-05
404.172	0.518066	-1.06812e-06
406.512	-0.69812	-0.0148529
408.872	0.51709	4.28772e-05
411.192	0.518097	-2.16675e-06
413.532	-0.699493	-0.0106628
415.892	0.517609	2.57568e-05
418.212	0.517212	5.98145e-06
420.552	-0.698273	-0.00837402
422.912	0.516876	2.04773e-05
425.232	0.516998	4.73022e-06
427.572	-0.698853	-0.0070166
429.932	0.516815	1.7334e-05
432.252	0.517395	8.23975e-07
434.612	0.000271606	0.00993042
436.952	0.518127	7.01904e-06
439.272	0.518219	-2.74658e-06
441.632	0.000140381	0.00663971
443.972	0.518127	5.67627e-06
446.292	0.516907	5.85937e-06
448.652	-0.00020752	0.00427643
450.992	0.5177	5.7373e-06
453.312	0.517334	3.66211e-07
455.672	0.000863647	0.0024881
458.012	0.518036	2.89917e-06
460.332	0.518097	-2.47192e-06
462.712	0.518066	0.00641571
465.032	0.516876	1.02844e-05
467.352	0.516907	5.5542e-06
469.732	0.518158	0.000279205
472.052	0.516846	7.44629e-06
474.372	0.516876	5.40161e-06
476.752	0.51825	9.53674e-05
479.072	0.51825	-1.00708e-06
481.412	-0.699249	-0.0159149
483.772	0.516785	5.42908e-05
486.092	0.516846	6.65283e-06
488.432	-0.698883	-0.011615
490.792	0.516815	3.74756e-05
493.112	0.517853	1.12915e-06
495.452	-0.699188	-0.00914612
497.812	0.517212	2.59705e-05
500.132	0.517975	-1.00708e-06
502.472	-0.698334	-0.0076355
504.833	0.518097	1.33972e-05
507.153	0.516968	6.86646e-06
509.513	-0.000646973	0.0100128
511.853	0.516937	1.83105e-05
514.173	0.51828	-2.01416e-06
516.533	5.49316e-05	0.00693787
518.873	0.516815	1.59607e-05
521.193	0.517212	3.02124e-06
523.553	5.79834e-05	0.00470581
525.893	0.517761	9.58252e-06
528.213	0.517639	2.44141e-06
530.573	0.000939941	0.00295959
532.913	0.518158	3.60107e-06
535.233	0.517944	-5.79834e-07
537.613	0.518005	0.00866699
539.933	0.517609	6.5918e-06
542.253	0.517212	2.71606e-06
544.633	0.517303	0.000417908
546.953	0.517609	2.2583e-06
549.273	0.517059	3.8147e-06
551.653	0.51828	0.000124664
553.973	0.517975	3.20435e-06
556.313	-0.698761	-0.016803
558.673	0.517242	6.32324e-05
560.993	0.516815	9.94873e-06
563.333	-0.698578	-0.0123901
565.693	0.517548	3.91541e-05
568.013	0.518036	-1.83105e-07
570.353	-0.698151	-0.0098114
572.713	0.518402	2.37122e-05
575.033	0.516693	7.90405e-06
577.373	-0.699524	-0.0081665
579.733	0.516907	2.4292e-05
582.053	0.517548	3.38745e-06
584.413	-0.000674438	0.0100128
586.753	0.517914	1.53503e-05
589.073	0.517151	5.79834e-06
591.433	0.000643921	0.00711426
593.773	0.517151	1.6449e-05
596.093	0.518188	-1.19019e-06
598.453	0.000869751	0.00499359
600.793	0.518341	8.36182e-06
603.113	0.516724	7.90405e-06
605.473	-0.000241089	0.0033252
607.813	0.518219	6.37817e-06
610.133	0.516876	6.5918e-06
612.513	0.516815	0.00994873
614.833	0.516846	1.34583e-05
617.153	0.516907	7.1106e-06
619.533	0.516876	0.000617981
621.853	0.516937	1.27869e-05
624.173	0.518097	-2.22778e-06
626.553	0.51709	0.000164642
628.873	0.517334	6.74438e-06
631.213	-0.697906	-0.0175751
633.573	0.516937	8.13904e-05
635.893	0.517944	3.479e-06
638.233	-0.698639	-0.013092
640.593	0.516998	4.94385e-05
642.913	0.516876	9.79614e-06
645.253	-0.698151	-0.010434
647.613	0.517334	3.51868e-05
649.933	0.518036	1.15967e-06
652.273	-0.698395	-0.00869446
654.633	0.517395	2.44141e-05
656.953	0.516968	1.02844e-05
659.313	-0.000796509	0.00994873
661.653	0.517578	2.00806e-05
663.973	0.517578	4.05884e-06
666.333	0.000238037	0.0072113
668.673	0.51825	1.33057e-05
670.993	0.516968	8.02612e-06
673.353	-0.000131226	0.00519592
675.693	0.517029	1.69678e-05
678.013	0.517761	2.86865e-06
680.373	0.000964355	0.0035849
682.713	0.517059	1.54114e-05
685.033	0.516937	6.71387e-06
687.413	0.516907	0.0108948
689.733	0.516937	1.66626e-05
692.053	0.518219	-8.54492e-07
694.433	0.517761	0.00098114
696.753	0.517853	6.22559e-06
699.073	0.517914	1.43433e-06
701.453	0.51709	0.000210236
703.773	0.517181	1.27563e-05
706.113	-0.699005	-0.0182159
708.473	0.516815	9.97925e-05
710.793	0.518188	2.96021e-06
713.133	-0.698181	-0.0136993
715.493	0.51709	5.99365e-05
717.813	0.517731	6.19507e-06
720.153	-0.698761	-0.0109741
722.513	0.518188	3.45154e-05
724.833	0.517334	8.39233e-06
727.173	-0.6987	-0.00915222
729.533	0.517303	3.37524e-05
731.853	0.518005	1.06812e-06
734.213	-0.00083313	0.00984497
736.553	0.517914	2.18811e-05
738.873	0.517334	6.22559e-06
741.233	0.000738525	0.00725403
743.573	0.517059	2.46582e-05
745.893	0.518097	0
748.253	0.000137329	0.00532776
750.593	0.516846	2.20032e-05
752.913	0.51828	-3.66211e-07
755.273	0.000326538	0.00378326
757.613	0.51712	1.86768e-05
759.933	0.518158	2.44141e-07
762.313	0.516266	0.0116302
764.633	0.518066	9.52148e-06
766.953	0.517944	1.25122e-06
769.333	0.517426	0.00196594
771.653	0.517792	1.11084e-05
773.973	0.516815	8.75854e-06
776.353	0.517456	0.00026236
778.673	0.518188	6.7749e-06
781.013	-0.698975	-0.0188141
783.373	0.516968	0.000117737
785.693	0.516876	1.48926e-05
788.033	-0.698639	-0.0142303
790.393	0.518066	6.29272e-05
792.713	0.517639	6.86646e-06
795.053	-0.69812	-0.011499
797.413	0.517303	4.66614e-05
799.733	0.517242	9.82666e-06
802.073	-0.698242	-0.00960083
804.433	0.518372	3.125E-05
806.753	0.516754	1.37939e-05
809.113	-0.000671387	0.009729
811.453	0.517761	2.67334e-05
813.773	0.516815	1.15662e-05
816.133	0.000299072	0.00726532
818.473	0.516876	2.8595e-05
820.793	0.517914	4.60815e-06
823.153	-0.00045166	0.00543396
825.493	0.517426	2.02026e-05
827.813	0.517212	6.68335e-06
830.173	-0.000125122	0.0039502
832.513	0.51767	1.77917e-05
834.833	0.518188	6.40869e-07
837.213	0.5177	0.0122559
839.533	0.51767	1.40381e-05
841.853	0.516998	7.41577e-06
844.233	0.518066	0.00608063
846.553	0.516968	1.72729e-05
848.873	0.518097	6.71387e-07
851.253	0.516876	0.000334137
853.573	0.517975	8.5144e-06
855.913	-0.699005	-0.0193573
858.273	0.517029	0.000133423
860.593	0.518005	9.15527e-06
862.933	-0.699249	-0.0147461
865.293	0.516876	7.91321e-05
867.614	0.518311	6.16455e-06
869.954	-0.698364	-0.0119781
872.314	0.51767	5.35889e-05
874.634	0.517731	5.58472e-06
876.974	-0.698761	-0.010022
879.334	0.518188	3.54614e-05
881.654	0.517395	8.91113e-06
881.774	0.516754	1.03149e-05

File: pulses_1000_to_2000.txt
Time (s)	WE(1).Potential (V)	WE(1).Current (A)
893.963	-0.698608	-0.0196106
896.323	0.516754	0.000141052
898.643	0.516693	1.55029e-05
900.983	-0.697754	-0.0149261
903.343	0.5177	7.98035e-05
905.663	0.517303	1.19324e-05
908.003	-0.698578	-0.0121704
910.363	0.518219	5.18494e-05
912.683	0.51712	1.08643e-05
915.023	-0.698303	-0.0102112
917.383	0.516785	4.83093e-05
919.703	0.517517	8.3313e-06
922.063	-0.000567627	0.00949097
924.403	0.517029	3.70483e-05
926.723	0.517975	6.95801e-06
929.083	-0.000109863	0.00721252
931.423	0.517548	2.9541e-05
933.743	0.517303	8.3313e-06
936.103	-0.000274658	0.00548279
938.443	0.517059	2.70691e-05
940.763	0.51825	2.92969e-06
943.123	0.000778198	0.00406921
945.463	0.516785	2.5238e-05
947.783	0.518036	2.31934e-06
950.163	0.516541	0.0129272
952.483	0.517456	1.71509e-05
954.803	0.516815	1.07422e-05
957.183	0.516876	0.00797424
959.503	0.5177	1.42517e-05
961.823	0.517883	3.23486e-06
964.203	0.516663	0.00047641
966.523	0.518219	8.69751e-06
968.863	-0.698425	-0.0200165
971.223	0.516876	0.000167908
973.543	0.51712	1.77002e-05
975.883	-0.698456	-0.0153839
978.243	0.51825	9.01794e-05
980.563	0.516815	1.75171e-05
982.903	-0.698303	-0.0126129
985.263	0.517517	6.26526e-05
987.583	0.516754	1.68457e-05
989.923	-0.699463	-0.0106049
992.283	0.518219	4.31519e-05
994.603	0.51767	9.765625E-06
996.963	-0.00101624	0.00934753
999.303	0.517365	4.02832e-05
1001.62	0.517212	1.06812e-05
1003.98	-0.000622559	0.00718597
1006.32	0.51712	3.32642e-05
1008.64	0.517853	5.76782e-06
1011	-0.000567627	0.00552765
1013.34	0.517365	2.92358e-05
1015.66	0.517181	9.82666e-06
1018.02	-7.93457e-05	0.00417572
1020.36	0.516876	2.6062e-05
1022.68	0.516876	1.3031e-05
1025.06	0.516937	0.013385
1027.38	0.516785	2.50244e-05
1029.7	0.516846	1.11389e-05
1032.08	0.517792	0.00888062
1034.4	0.518219	1.40686e-05
1036.72	0.517639	6.16455e-06
1039.1	0.517883	0.000646362
1041.42	0.516785	1.97754e-05
1043.76	-0.698181	-0.0204407
1046.12	0.517181	0.000198639
1048.44	0.517883	1.29395e-05
1050.78	-0.699188	-0.0158417
1053.14	0.516907	0.000108154
1055.46	0.517883	1.03455e-05
1057.8	-0.697998	-0.0130463
1060.16	0.518097	6.62231e-05
1062.48	0.518219	9.06372e-06
1064.82	-0.699371	-0.0110168
1067.18	0.518158	4.79736e-05
1069.5	0.516815	1.58691e-05
1071.86	-0.000195313	0.00915833
1074.2	0.517944	3.9978e-05
1076.52	0.516968	1.47095e-05
1078.88	-0.000558472	0.00711945
1081.22	0.518127	3.01819e-05
1083.54	0.518188	5.92041e-06
1085.9	-4.57764e-05	0.00553223
1088.24	0.516815	3.37219e-05
1090.56	0.517883	5.85937e-06
1092.92	-0.000247192	0.00423462
1095.26	0.517151	2.81372e-05
1097.58	0.517731	7.93457e-06
1099.96	0.517456	0.0137634
1102.28	0.518158	1.87988e-05
1104.6	0.517639	8.5144e-06
1106.98	0.516968	0.00958252
1109.3	0.517944	1.62048e-05
1111.62	0.516815	1.13831e-05
1114	0.517822	0.000981445
1116.32	0.518127	1.35498e-05
1118.66	-0.698029	-0.0208344
1121.02	0.517883	0.000227661
1123.34	0.517853	1.47095e-05
1125.68	-0.697723	-0.0162903
1128.04	0.518005	0.000112762
1130.36	0.517181	1.70288e-05
1132.7	-0.699432	-0.0134613
1135.06	0.516815	8.26111e-05
1137.38	0.517578	1.09863e-05
1139.72	-0.698792	-0.0114197
1142.08	0.51767	5.60608e-05
1144.4	0.516937	1.58691e-05
1146.76	0.000134277	0.00899353
1149.1	0.51828	3.95813e-05
1151.42	0.516785	1.60217e-05
1153.78	-0.000296021	0.00703735
1156.12	0.517914	3.27454e-05
1158.44	0.517761	7.78198e-06
1160.8	0.000595093	0.00552216
1163.14	0.518158	2.76794e-05
1165.46	0.517975	7.90405e-06
1167.82	-0.000372314	0.00428192
1170.16	0.517975	2.39258e-05
1172.48	0.517151	1.15662e-05
1174.86	0.517303	0.0140778
1177.18	0.518097	1.9989e-05
1179.5	0.517426	8.60596e-06
1181.88	0.517883	0.0101257
1184.2	0.516754	2.43225e-05
1186.52	0.517822	6.7749e-06
1188.9	0.518127	0.00231049
1191.22	0.518219	1.44348e-05
1193.56	-0.698639	-0.021167
1195.92	0.518066	0.000273132
1198.24	0.517578	1.72424e-05
1200.58	-0.698914	-0.0166901
1202.94	0.517426	0.000129578
1205.26	0.516724	2.04163e-05
1207.6	-0.698669	-0.0138641
1209.96	0.517487	8.53577e-05
1212.28	0.517273	1.25732e-05
1214.62	-0.699097	-0.0117981
1216.98	0.516754	6.92749e-05
1219.3	0.518341	7.69043e-06
1221.66	0.000170898	0.00879517
1224	0.516754	5.36194e-05
1226.32	0.516998	1.74255e-05
1228.68	-0.000344849	0.0069455
1231.02	0.518005	3.94287e-05
1233.34	0.516907	1.66321e-05
1235.7	0.000299072	0.00549561
1238.04	0.51767	3.62854e-05
1240.36	0.516846	1.3916e-05
1242.72	0.000469971	0.00429504
1245.06	0.5177	2.81067e-05
1247.38	0.517212	1.08337e-05
1249.76	0.516846	0.0143585
1252.08	0.517517	2.4353e-05
1254.4	0.517365	1.03455e-05
1256.78	0.51767	0.0105774
1259.1	0.517853	1.93481e-05
1261.42	0.51767	9.49097e-06
1263.8	0.516846	0.00589508
1266.12	0.51712	2.27966e-05
1268.46	-0.698853	-0.0214661
1270.82	0.517395	0.000332825
1273.14	0.5177	1.62354e-05
1275.48	-0.698273	-0.0170532
1277.84	0.517792	0.000144073
1280.16	0.518005	1.42212e-05
1282.5	-0.699249	-0.014209
1284.86	0.516754	9.56116e-05
1287.18	0.517456	1.62354e-05
1289.52	-0.699036	-0.0121429
1291.88	0.517883	6.3385e-05
1294.2	0.517944	1.02539e-05
1296.56	0.000531006	0.00861511
1298.9	0.517181	5.42908e-05
1301.22	0.518188	7.44629e-06
1303.58	0.000262451	0.00684387
1305.92	0.517853	3.83606e-05
1308.24	0.516876	1.66016e-05
1310.6	-0.000128174	0.00546326
1312.94	0.517883	3.36609e-05
1315.26	0.517242	1.14441e-05
1317.62	-4.88281e-05	0.00430328
1319.96	0.517181	3.19519e-05
1322.28	0.518188	6.62231e-06
1324.66	0.517395	0.0145752
1326.98	0.516876	2.98767e-05
1329.3	0.517212	1.19019e-05
1331.68	0.5177	0.0109467
1334	0.517181	2.61841e-05
1336.32	0.516937	1.22375e-05
1338.7	0.517487	0.0070343
1341.02	0.517456	2.19727e-05
1343.36	-0.698273	-0.0217224
1345.72	0.518066	0.000401398
1348.04	0.517334	2.10876e-05
1350.38	-0.698242	-0.0174103
1352.74	0.518005	0.000156372
1355.06	0.517853	1.60828e-05
1357.4	-0.698029	-0.014566
1359.76	0.517761	9.67102e-05
1362.08	0.516785	2.03857e-05
1364.42	-0.699371	-0.0124725
1366.78	0.517242	7.08008e-05
1369.1	0.517395	1.59302e-05
1371.46	4.88281e-05	0.00840454
1373.8	0.51825	5.07202e-05
1376.12	0.51712	1.65405e-05
1378.48	0.000820923	0.00673248
1380.82	0.518097	4.07104e-05
1383.14	0.517365	1.19019e-05
1385.5	-0.00057373	0.00540436
1387.84	0.517731	3.57056e-05
1390.16	0.516693	1.67236e-05
1392.52	0.000863647	0.0042807
1394.86	0.51709	3.64685e-05
1397.18	0.51828	6.80542e-06
1399.56	0.516174	0.0147614
1401.88	0.51828	2.36816e-05
1404.2	0.517639	9.33838e-06
1406.58	0.517395	0.0112854
1408.9	0.516754	2.96631e-05
1411.22	0.518127	4.73022e-06
1413.6	0.516479	0.00776367
1415.92	0.517517	2.23694e-05
1418.26	-0.697571	-0.0219635
1420.62	0.517548	0.000518188
1422.94	0.517212	2.20947e-05
1425.28	-0.697723	-0.0177216
1427.64	0.518127	0.000177002
1429.96	0.517029	2.19116e-05
1432.3	-0.697937	-0.0148712
1434.66	0.516815	0.000110291
1436.98	0.51767	1.69983e-05
1439.32	-0.698822	-0.0127869
1441.68	0.517883	7.41882e-05
1444	0.51767	1.52283e-05
1446.36	-0.000549316	0.00821838
1448.7	0.518127	5.33752e-05
1451.02	0.516907	1.83716e-05
1453.38	0.000164795	0.00660889
1455.72	0.517212	4.82483e-05
1458.04	0.517151	1.50757e-05
1460.4	0.000457764	0.00533356
1462.74	0.51767	3.83606e-05
1465.06	0.517609	1.3031e-05
1467.42	-0.000598145	0.00426208
1469.76	0.516968	3.60718e-05
1472.08	0.516876	1.54114e-05
1474.46	0.517456	0.0149292
1476.78	0.516937	3.43018e-05
1479.1	0.517853	8.3313e-06
1481.48	0.516541	0.0115631
1483.8	0.517487	2.5116e-05
1486.12	0.517609	1.1261e-05
1488.5	0.517212	0.00829468
1490.82	0.518219	1.94397e-05
1493.16	-0.697632	-0.0221771
1495.52	0.51712	0.000708923
1497.84	0.518036	1.66321e-05
1500.18	-0.698975	-0.0180328
1502.54	0.516815	0.000206268
1504.86	0.517029	1.90735e-05
1507.2	-0.698547	-0.0151886
1509.56	0.516998	0.000119202
1511.88	0.518219	1.35193e-05
1514.22	-0.698608	-0.0131073
1516.58	0.516846	8.58765e-05
1518.9	0.517914	1.25122e-05
1521.26	-0.00078125	0.00804138
1523.6	0.517212	6.36902e-05
1525.92	0.516846	2.0752e-05
1528.28	0.000698853	0.00649811
1530.62	0.518066	4.37622e-05
1532.94	0.517639	1.30615e-05
1535.3	-0.000506592	0.00527466
1537.64	0.516754	4.61121e-05
1539.96	0.518066	8.63647e-06
1542.32	0.000695801	0.00422729
1544.66	0.517456	3.63159e-05
1546.98	0.517059	1.51062e-05
1549.36	0.516998	0.0150726
1551.68	0.516815	3.58887e-05
1554	0.518036	7.47681e-06
1556.38	0.517456	0.0118042
1558.7	0.516907	3.10364e-05
1561.02	0.516785	1.66016e-05
1563.4	0.517273	0.00874939
1565.72	0.517639	2.28577e-05
1568.06	-0.697388	-0.0223602
1570.42	0.517395	0.00109131
1572.74	0.517029	2.6123e-05
1575.08	-0.698364	-0.0183167
1577.44	0.517822	0.000233459
1579.76	0.516785	2.61536e-05
1582.1	-0.699249	-0.0154663
1584.46	0.518158	0.000119537
1586.78	0.516815	2.48108e-05
1589.12	-0.697968	-0.0133942
1591.48	0.518036	8.12988e-05
1593.8	0.518066	1.29089e-05
1593.92	0.518036	6.10352e-06