Folder: electrochromicfilms/Edgar/20240515/20240515/EC_measurements/Sample_20240502_B/CV/data

File: CV_1
Time (s)	Scan	WE(1).Potential (V)	WE(1).Current (A)	External(1).External 2 (V)	Q+	Q-
531.331	1	0.127411	9.49371e-07	4.01917
532.795	1	0.11261	-6.14624e-06	4.19586
534.26	1	0.083374	-1.20239e-05	4.05792
535.725	1	0.0545349	-1.99188e-05	4.13696
537.19	1	0.0277924	-2.95624e-05	3.98102
538.655	1	-0.000912476	-4.06525e-05	3.98071
540.12	1	-0.0309174	-5.24902e-05	4.01978
541.584	1	-0.0633545	-6.47583e-05	4.01978
543.049	1	-0.0913391	-7.67822e-05	3.92212
544.514	1	-0.120697	-8.71887e-05	3.98132
545.979	1	-0.150604	-9.43298e-05	3.98102
547.444	1	-0.178741	-9.65576e-05	3.72223
548.909	1	-0.209137	-9.44214e-05	3.92242
550.373	1	-0.23764	-9.07593e-05	3.96179
551.838	1	-0.266663	-8.77686e-05	3.92212
553.303	1	-0.296783	-8.63037e-05	3.82477
554.768	1	-0.325317	-8.65173e-05	3.76129
556.233	1	-0.355011	-8.83789e-05	3.7616
557.698	1	-0.383362	-9.21936e-05	3.80585
559.162	1	-0.4133	-9.79614e-05	3.72223
560.627	1	-0.442688	-0.000105072	3.60504
562.092	1	-0.470978	-0.000113068	3.6261
563.557	1	-0.500153	-0.000121735	3.48846
565.022	1	-0.476105	-3.24249e-05	3.46863
566.487	1	-0.447479	2.15363e-05	3.48816
567.952	1	-0.417847	5.40161e-05	3.64471
569.416	1	-0.388214	7.37e-05	3.50769
570.881	1	-0.358887	8.5022e-05	3.58582
572.346	1	-0.329987	9.03931e-05	3.6264
573.811	1	-0.300537	9.1095e-05	3.7027
575.276	1	-0.271942	8.81042e-05	3.66364
576.741	1	-0.24234	8.36487e-05	3.84399
578.205	1	-0.213104	7.99866e-05	3.74268
579.67	1	-0.184753	7.77283e-05	3.76129
581.135	1	-0.155457	7.67212e-05	3.88245
582.6	1	-0.126373	7.70264e-05	3.88336
584.065	1	-0.0971069	7.84302e-05	3.90259
585.53	1	-0.0673523	8.04138e-05	3.98102
586.994	1	-0.0353577	8.1665e-05	3.90259
588.459	1	-0.00595093	8.14209e-05	3.92181
589.924	1	0.0230255	7.9895e-05	3.94226
591.389	1	0.0496521	7.56531e-05	4.05853
592.854	1	0.0783997	6.40259e-05	3.98071
594.319	1	0.107422	4.17328e-05	4.05853
595.783	2	0.136536	1.79657e-05	3.98041
597.248	2	0.165863	7.46765e-06	3.98102
598.713	2	0.194702	4.19312e-06	4.05823
600.178	2	0.224518	2.83569e-06	3.98071
601.643	2	0.253296	2.19391e-06	4.05823
603.108	2	0.282318	1.79871e-06	4.05823
604.573	2	0.312286	1.44531e-06	3.96118
606.037	2	0.340668	1.12122e-06	4.01947
607.502	2	0.370361	9.62219e-07	3.98041
608.967	2	0.398834	9.1156e-07	4.0976
610.432	2	0.428131	8.1543e-07	3.9212
611.897	2	0.457428	7.70569e-07	4.11652
613.362	2	0.48645	7.2113e-07	4.19495
614.826	2	0.516205	6.41785e-07	4.11682
616.291	2	0.545197	6.69861e-07	4.11652
617.756	2	0.574341	6.55823e-07	4.01886
619.221	2	0.604095	6.71387e-07	4.13666
620.686	2	0.632416	7.14111e-07	3.96088
622.151	2	0.662262	6.61926e-07	4.07715
623.615	2	0.691162	6.67419e-07	4.1748
625.08	2	0.720612	6.20422e-07	4.07715
626.545	2	0.748901	5.91736e-07	3.9801
628.01	2	0.778198	6.40564e-07	4.01855
629.475	2	0.808105	6.46057e-07	4.07654
630.94	2	0.836182	7.00989e-07	4.11682
632.404	2	0.864868	7.49512e-07	4.07684
633.869	2	0.895691	7.30286e-07	4.01794
635.334	2	0.924683	7.49817e-07	3.99872
636.799	2	0.954285	6.96411e-07	2.77313
638.264	2	0.982666	7.09534e-07	4.11621
639.729	2	0.978394	5.19714e-07	4.05762
641.194	2	0.948181	3.68347e-07	4.09668
642.658	2	0.919189	3.41797e-07	3.99902
644.123	2	0.889893	2.76489e-07	4.07684
645.588	2	0.85968	2.15149e-07	3.95966
647.053	2	0.831604	1.66016e-07	4.03778
648.518	2	0.802307	8.8501e-08	4.01794
649.983	2	0.773926	1.09253e-07	4.03809
651.447	2	0.743713	9.39941e-08	3.8623
652.912	2	0.715546	1.18408e-07	4.15619
654.377	2	0.686188	1.33057e-07	4.00024
655.842	2	0.656799	9.44214e-08	4.09668
657.307	2	0.628296	7.00378e-08	4.19434
658.772	2	0.598694	5.49316e-10	4.15588
660.236	2	0.570007	2.37427e-08	3.9801
661.701	2	0.540009	1.13525e-08	4.07715
663.166	2	0.511627	3.72009e-08	4.11621
664.631	2	0.481903	5.8197e-08	4.09729
666.096	2	0.453186	-4.30298e-09	3.98041
667.561	2	0.423584	-2.83813e-08	3.94165
669.025	2	0.394073	-1.29059e-07	4.03931
670.49	2	0.365845	-1.53625e-07	4.05792
671.955	2	0.336304	-1.8866e-07	4.13635
673.42	2	0.307007	-2.88696e-07	3.94196
674.885	2	0.277893	-4.70886e-07	4.07684
676.35	2	0.249115	-8.99048e-07	3.96118
677.815	2	0.219391	-1.33392e-06	4.01947
679.279	2	0.190613	-1.91284e-06	4.07745
680.744	2	0.161438	-2.91687e-06	3.96149
682.209	2	0.131592	-5.3833e-06	4.05792
683.674	2	0.10257	-9.88464e-06	4.05823
685.139	2	0.0737	-1.68121e-05	4.03931
686.604	2	0.0474609	-2.565e-05	4.07867
688.068	2	0.0185577	-3.60657e-05	3.96149
689.533	2	-0.0116791	-4.71649e-05	4.13727
690.998	2	-0.0403503	-5.88379e-05	4.13635
692.463	2	-0.072052	-7.04651e-05	4.03961
693.928	2	-0.10199	-8.10242e-05	4.03931
695.393	2	-0.13089	-8.87451e-05	4.11774
696.857	2	-0.160522	-9.27124e-05	4.00055
698.322	2	-0.188904	-9.24377e-05	3.94104
699.787	2	-0.218048	-8.96301e-05	3.92273
701.252	2	-0.24707	-8.66699e-05	3.92242
702.717	2	-0.276581	-8.47778e-05	3.82385
704.182	2	-0.305573	-8.43811e-05	3.78601
705.646	2	-0.33548	-8.53882e-05	3.82477
707.111	2	-0.364868	-8.80432e-05	3.80585
708.576	2	-0.393555	-9.24988e-05	3.82507
710.041	2	-0.423157	-9.86633e-05	3.64502
711.506	2	-0.451569	-0.000106018	3.64471
712.971	2	-0.481445	-0.000114136	3.62549
714.436	2	-0.495331	-8.9325e-05	3.62579
715.9	2	-0.466034	-1.00372e-05	3.44849
717.365	2	-0.437073	3.4787e-05	3.68378
718.83	2	-0.408325	6.19507e-05	3.66455
720.295	2	-0.377899	7.8186e-05	0.67688
721.76	2	-0.349243	8.71887e-05	3.64471
723.225	2	-0.320404	9.08813e-05	3.74146
724.689	2	-0.290833	9.00574e-05	3.72192
726.154	2	-0.261902	8.63037e-05	3.66333
727.619	2	-0.233246	8.203125E-05	3.72223
729.084	2	-0.203613	7.88879e-05	3.84399
730.549	2	-0.174225	7.72095e-05	3.74146
732.014	2	-0.145935	7.67517e-05	3.80554
733.478	2	-0.115936	7.75146e-05	3.90259
734.943	2	-0.0872803	7.91931e-05	3.98041
736.408	2	-0.0582886	8.10547e-05	4.0387
737.873	2	-0.0259949	8.1665e-05	3.99994
739.338	2	0.00297852	8.07495e-05	4.01917
740.803	2	0.0324432	7.87659e-05	4.13727
742.267	2	0.0585632	7.28149e-05	3.99994
743.732	2	0.0882568	5.80139e-05	3.92212
745.197	2	0.116852	3.35266e-05	4.03992
746.662	3	0.146912	1.3443e-05	4.05914
748.127	3	0.175812	5.99976e-06	4.15588
749.592	3	0.204468	3.5614e-06	4.19495
751.057	3	0.23349	2.55554e-06	3.9801
752.521	3	0.263123	1.98364e-06	4.07806
753.986	3	0.292633	1.65131e-06	3.94165
755.451	3	0.321045	1.34399e-06	4.11652
756.916	3	0.350983	1.16394e-06	3.96149
758.381	3	0.379852	9.74731e-07	4.11682
759.846	3	0.408813	9.10339e-07	4.13635
761.31	3	0.438446	8.95081e-07	4.07776
762.775	3	0.467346	8.48083e-07	4.17511
764.24	3	0.496918	8.49915e-07	4.13666
765.705	3	0.526154	8.7738e-07	4.03778
767.17	3	0.555328	8.30078e-07	4.03839
768.635	3	0.583984	7.58972e-07	4.03809
770.099	3	0.613556	7.06482e-07	3.99933
771.564	3	0.642853	6.44836e-07	4.01825
773.029	3	0.671356	5.5603e-07	3.99933
774.494	3	0.700958	5.4657e-07	3.95996
775.959	3	0.730469	5.44434e-07	4.13635
777.424	3	0.759888	5.24902e-07	4.07715
778.888	3	0.787964	5.49927e-07	4.09698
780.353	3	0.817261	5.67627e-07	4.13574
781.818	3	0.846863	5.44739e-07	4.0387
783.283	3	0.875854	5.29785e-07	4.11621
784.748	3	0.904846	5.43213e-07	4.05762
786.213	3	0.934753	5.53284e-07	4.19403
787.678	3	0.963135	5.31616e-07	4.11652
789.142	3	0.992432	5.5542e-07	4.13544
790.607	3	0.968323	3.479e-07	4.07654
792.072	3	0.938721	2.61536e-07	4.07715
793.537	3	0.908813	2.02637e-07	4.09698
795.002	3	0.880432	2.22168e-07	4.11621
796.467	3	0.852051	1.93481e-07	4.07623
797.931	3	0.822449	1.40991e-07	4.15527
799.396	3	0.793457	1.21155e-07	4.09698
800.861	3	0.763245	5.82886e-08	4.2334
802.326	3	0.735229	3.17383e-08	4.15588
803.791	3	0.705383	5.9021e-08	4.19495
805.256	3	0.676178	3.60413e-08	4.05731
806.72	3	0.647552	5.82886e-08	4.15527
808.185	3	0.618561	9.90906e-08	4.05792
809.65	3	0.588623	6.82678e-08	4.09698
811.115	3	0.560272	4.47693e-08	3.9798
812.58	3	0.530701	2.14539e-08	4.07684
814.045	3	0.50119	-5.59387e-08	3.98041
815.509	3	0.472015	-6.7688e-08	3.90167
816.974	3	0.443573	-5.41077e-08	4.13635
818.439	3	0.414215	-8.83789e-08	4.11682
819.904	3	0.385193	-7.62634e-08	4.23401
821.369	3	0.355438	-7.98035e-08	4.05792
822.834	3	0.325958	-1.85944e-07	4.09729
824.299	3	0.297333	-3.42102e-07	4.15649
825.763	3	0.267639	-6.17676e-07	4.09729
827.228	3	0.238861	-1.01532e-06	4.05853
828.693	3	0.209259	-1.39832e-06	4.0387
830.158	3	0.18103	-1.9754e-06	4.039
831.623	3	0.150787	-3.44086e-06	4.13666
833.088	3	0.121857	-6.6803e-06	4.13696
834.552	3	0.0924377	-1.21674e-05	4.19556
836.017	3	0.0635071	-1.97571e-05	4.01917
837.482	3	0.0373444	-2.91168e-05	4.0979
838.947	3	0.00784302	-3.98529e-05	4.05914
840.412	3	-0.0207855	-5.1239e-05	4.01917
841.877	3	-0.0499481	-6.28662e-05	4.1568
843.341	3	-0.0827026	-7.42798e-05	4.05853
844.806	3	-0.111908	-8.38013e-05	3.98071
846.271	3	-0.140228	-9.00269e-05	3.96149
847.736	3	-0.169281	-9.22546e-05	3.88214
849.201	3	-0.198547	-9.08813e-05	3.98102
850.666	3	-0.227844	-8.79517e-05	3.88306
852.13	3	-0.257538	-8.53577e-05	3.94196
853.595	3	-0.286224	-8.40149e-05	3.8446
855.06	3	-0.315369	-8.4198e-05	3.8446
856.525	3	-0.344391	-8.56323e-05	3.7616
857.99	3	-0.374725	-8.88367e-05	3.88336
859.455	3	-0.403748	-9.38416e-05	3.76129
860.92	3	-0.432159	-0.000100342	3.66364
862.384	3	-0.462006	-0.000107849	3.54675
863.849	3	-0.491058	-0.000116211	3.60474
865.314	3	-0.485687	-5.62134e-05	3.60535
866.779	3	-0.456879	7.97119e-06	3.62518
868.244	3	-0.427704	4.55292e-05	3.60565
869.709	3	-0.397888	6.82068e-05	3.58551
871.173	3	-0.369751	8.1543e-05	3.703
872.638	3	-0.340302	8.84399e-05	3.5849
874.103	3	-0.311188	9.05151e-05	3.66455
875.568	3	-0.281708	8.85925e-05	3.703
877.033	3	-0.252869	8.45642e-05	3.76099
878.498	3	-0.22287	8.07495e-05	3.90198
879.962	3	-0.193848	7.8186e-05	3.74176
881.427	3	-0.164948	7.69043e-05	3.88367
882.892	3	-0.135101	7.68738e-05	3.86383
884.357	3	-0.106903	7.79114e-05	3.88275
885.822	3	-0.0771484	7.97729e-05	3.96149
887.287	3	-0.0448334	8.14209e-05	3.96149
888.751	3	-0.0165253	8.14819e-05	4.00055
890.216	3	0.0132629	8.01697e-05	4.05914
891.681	3	0.0422485	7.73926e-05	4.00055
893.146	3	0.0690308	6.89697e-05	3.96149
894.611	3	0.0973816	5.04456e-05	4.00055
895.954	3	0.124878	2.71332e-05	3.9801

File: CV_2
Time (s)	Scan	WE(1).Potential (V)	WE(1).Current (A)	Q+	Q-	External(1).External 2 (V)
896.223	1	0.126587	1.96075e-05			4.07745
897.932	1	0.108093	-8.78296e-06			4.11743
899.641	1	0.0734863	-1.85059e-05			4.01947
901.35	1	0.0422852	-2.9657e-05			4.09882
903.059	1	0.00792236	-4.16931e-05			3.99963
904.768	1	-0.0263	-5.44128e-05			4.03961
906.477	1	-0.063324	-6.67419e-05			4.0979
908.186	1	-0.0966187	-7.76978e-05			4.07837
909.895	1	-0.131195	-8.5022e-05			4.0387
911.604	1	-0.164398	-8.84094e-05			3.96149
913.313	1	-0.198486	-8.72498e-05			4.01917
915.022	1	-0.232452	-8.47168e-05			3.92212
916.731	1	-0.266602	-8.26111e-05			3.90259
918.44	1	-0.301056	-8.22754e-05			3.78632
920.148	1	-0.334778	-8.34656e-05			3.78662
921.857	1	-0.369781	-8.6853e-05			3.82477
923.566	1	-0.402954	-9.24988e-05			3.78571
925.275	1	-0.437439	-0.000100128			3.60504
926.984	1	-0.471527	-0.000109009			3.54645
928.693	1	-0.505035	-0.000119019			3.60565
930.402	1	-0.539642	-0.000130646			3.48755
932.111	1	-0.571808	-0.000144531			0.431671
933.82	1	-0.598297	-0.000137207			3.3316
935.529	1	-0.563782	-4.07288e-05			3.38959
937.238	1	-0.529694	1.49109e-05			3.3902
938.947	1	-0.495361	5.09949e-05			3.35083
940.656	1	-0.461212	7.47375e-05			3.50739
942.365	1	-0.427277	9.04541e-05			3.52722
944.074	1	-0.393707	0.000100006			3.66486
945.783	1	-0.359955	0.000104736			3.64502
947.492	1	-0.325378	0.000104797			3.66394
949.201	1	-0.291718	0.000100494			3.66364
950.91	1	-0.256897	9.2865e-05			3.7027
952.619	1	-0.223297	8.56018e-05			3.72284
954.328	1	-0.189453	8.08411e-05			3.80554
956.037	1	-0.155701	7.87048e-05			3.88306
957.746	1	-0.121674	7.86438e-05			3.86353
959.455	1	-0.0870667	8.00781e-05			3.84399
961.164	1	-0.0524292	8.19092e-05			3.90167
962.873	1	-0.0159668	8.20007e-05			4.03931
964.582	1	0.0176178	8.05359e-05			3.92212
966.291	1	0.0486755	7.67822e-05			3.96118
968	1	0.0828247	6.41174e-05			4.05853
969.709	1	0.116852	3.78906e-05			3.98041
971.418	2	0.151703	1.39679e-05			4.11743
973.127	2	0.184753	5.89294e-06			4.13696
974.836	2	0.219452	3.59833e-06			4.03931
976.545	2	0.253632	2.69592e-06			4.11682
978.254	2	0.287933	2.1817e-06			4.15558
979.963	2	0.321899	1.86951e-06			4.19434
981.672	2	0.35614	1.63483e-06			4.15588
983.381	2	0.389893	1.48499e-06			4.15619
985.09	2	0.423401	1.3736e-06			4.0976
986.799	2	0.457825	1.30585e-06			4.13635
988.508	2	0.491547	1.24207e-06			4.039
990.217	2	0.52597	1.24451e-06			4.15588
991.926	2	0.560364	1.18195e-06			4.09729
993.635	2	0.593689	1.17981e-06			4.13666
995.344	2	0.628021	1.12823e-06			4.05823
997.053	2	0.662262	1.11786e-06			4.07745
998.762	2	0.695526	1.06415e-06			4.15558
1000.47	2	0.729919	1.0434e-06			4.01825
1002.18	2	0.76355	9.61609e-07			4.05731
1003.89	2	0.797424	9.09119e-07			4.13544
1005.6	2	0.831299	8.41675e-07			4.01794
1007.31	2	0.866394	8.04138e-07			4.13605
1009.02	2	0.900574	7.46765e-07			4.15497
1010.72	2	0.933838	7.61719e-07			4.19373
1012.43	2	0.968323	7.11975e-07			4.11713
1014.14	2	0.987854	6.43005e-07			4.0567
1015.85	2	0.95459	4.08936e-07			4.09698
1017.56	2	0.920715	3.52173e-07			4.13605
1019.27	2	0.88562	2.55737e-07			4.09668
1020.98	2	0.851746	2.4292e-07			4.1745
1022.69	2	0.817566	1.69067e-07			4.11591
1024.4	2	0.782166	2.14844e-07			4.15527
1026.11	2	0.749512	1.01929e-07			4.07745
1027.81	2	0.715118	1.80359e-07			4.05731
1029.52	2	0.681396	5.859375E-08			4.17542
1031.23	2	0.6474	1.49536e-07			4.05792
1032.94	2	0.613739	2.62451e-08			3.96027
1034.65	2	0.579346	1.25854e-07			4.01947
1036.36	2	0.544769	-3.20435e-09			4.07654
1038.07	2	0.510803	9.08813e-08			4.05792
1039.78	2	0.476654	-4.29993e-08			4.13635
1041.49	2	0.443146	3.90625E-08			4.09698
1043.2	2	0.408813	-9.97925e-08			4.11682
1044.9	2	0.374634	-2.99377e-08			4.15558
1046.61	2	0.340637	-1.91833e-07			4.05823
1048.32	2	0.307343	-2.21802e-07			4.11682
1050.03	2	0.273102	-5.08728e-07			4.05823
1051.74	2	0.239105	-7.55005e-07			3.98102
1053.45	2	0.205444	-1.203e-06			3.86322
1055.16	2	0.171356	-2.13959e-06			4.05823
1056.87	2	0.136597	-4.85535e-06			4.21509
1058.58	2	0.102509	-1.04462e-05			4.07806
1060.28	2	0.0686035	-1.8985e-05			4.19556
1061.99	2	0.0380035	-2.98279e-05			4.04266
1063.7	2	0.00308533	-4.23462e-05			4.13696
1065.41	2	-0.0302277	-5.5481e-05			4.01978
1067.12	2	-0.0681152	-6.89392e-05			4.05853
1068.83	2	-0.101776	-8.06885e-05			4.07837
1070.54	2	-0.135223	-8.86841e-05			3.86292
1072.25	2	-0.169342	-9.13696e-05			3.90228
1073.96	2	-0.204071	-8.97522e-05			3.96118
1075.67	2	-0.238434	-8.64258e-05			4.02008
1077.37	2	-0.272064	-8.4198e-05			3.86322
1079.08	2	-0.30603	-8.36792e-05			3.90198
1080.79	2	-0.340607	-8.49609e-05			3.96149
1082.5	2	-0.373657	-8.8623e-05			3.76068
1084.21	2	-0.4086	-9.42688e-05			3.7616
1085.92	2	-0.442444	-0.000102112			3.72223
1087.63	2	-0.476654	-0.000111084			3.62488
1089.34	2	-0.510803	-0.000121094			3.68347
1091.05	2	-0.544891	-0.000132599			3.58551
1092.76	2	-0.578918	-0.000146484			3.46863
1094.46	2	-0.593323	-0.000118713			3.3313
1096.17	2	-0.559204	-3.15918e-05			3.44818
1097.88	2	-0.524323	1.99493e-05			3.40912
1099.59	2	-0.490356	5.34668e-05			3.37036
1101.3	2	-0.456665	7.57141e-05			3.44818
1103.01	2	-0.422058	9.02405e-05			3.44818
1104.72	2	-0.388641	9.92432e-05			3.46832
1106.43	2	-0.354431	0.000103394			3.66425
1108.14	2	-0.320892	0.00010321			3.7027
1109.85	2	-0.286957	9.84802e-05			3.7027
1111.55	2	-0.252594	9.11865e-05			3.84369
1113.26	2	-0.218109	8.44727e-05			3.84399
1114.97	2	-0.184631	8.03528e-05			3.86383
1116.68	2	-0.150757	7.86438e-05			3.92212
1118.39	2	-0.11673	7.88269e-05			3.86292
1120.1	2	-0.0822754	8.06274e-05			4.07776
1121.81	2	-0.0450439	8.22449e-05			3.90259
1123.52	2	-0.0109406	8.21533e-05			3.88336
1125.23	2	0.0223602	8.04749e-05			3.98041
1126.94	2	0.0536499	7.57751e-05			4.21509
1128.64	2	0.0874329	6.05164e-05			4.11682
1130.35	2	0.121552	3.22388e-05			4.11682
1132.06	3	0.156708	1.12549e-05			4.0979
1133.77	3	0.19046	4.96216e-06			4.25385
1135.48	3	0.224426	3.18604e-06			4.23462
1137.19	3	0.257935	2.47101e-06			4.05853
1138.9	3	0.292053	2.00317e-06			4.11682
1140.61	3	0.325958	1.75537e-06			4.15619
1142.32	3	0.360443	1.50665e-06			4.23401
1144.02	3	0.394531	1.45142e-06			4.05823
1145.73	3	0.428528	1.25366e-06			4.13635
1147.44	3	0.462372	1.29791e-06			4.03839
1149.15	3	0.496063	1.13373e-06			4.15588
1150.86	3	0.530701	1.17096e-06			4.05762
1152.57	3	0.56485	1.11298e-06			4.19495
1154.28	3	0.599213	1.05927e-06			4.07745
1155.99	3	0.632538	1.05194e-06			4.17511
1157.7	3	0.667206	9.48181e-07			4.0976
1159.41	3	0.700684	9.12781e-07			4.27307
1161.11	3	0.735229	7.83386e-07			4.09668
1162.82	3	0.768127	8.12988e-07			4.2337
1164.53	3	0.802612	6.49719e-07			4.13574
1166.24	3	0.837708	7.18079e-07			3.99902
1167.95	3	0.870361	5.76782e-07			4.11621
1169.66	3	0.904236	6.39648e-07			4.13574
1171.37	3	0.939026	5.78613e-07			4.11621
1173.08	3	0.972595	6.03333e-07			4.11652
1174.79	3	0.982056	4.7821e-07			4.09637
1176.5	3	0.949402	3.05481e-07			4.19434
1178.2	3	0.914917	2.72827e-07			4.07715
1179.91	3	0.880127	1.89514e-07			4.09637
1181.62	3	0.846863	1.87073e-07			4.11682
1183.33	3	0.812683	1.13525e-07			4.17419
1185.04	3	0.776978	1.70898e-07			4.19403
1186.75	3	0.743103	5.31006e-08			4.07715
1188.46	3	0.710999	1.44043e-07			4.15619
1190.17	3	0.676056	2.59399e-08			4.13635
1191.88	3	0.642853	8.77075e-08			4.17542
1193.59	3	0.608551	4.69666e-08			4.19464
1195.29	3	0.573975	3.65601e-08			4.11682
1197	3	0.540649	4.53186e-08			4.2337
1198.71	3	0.50592	-7.14111e-09			4.19434
1200.42	3	0.471863	1.0437e-08			4.17572
1202.13	3	0.437927	-4.55322e-08			4.07715
1203.84	3	0.404755	-3.2135e-08			4.25415
1205.55	3	0.36972	-1.45508e-07			4.0387
1207.26	3	0.33667	-1.0379e-07			4.17511
1208.97	3	0.302032	-3.34991e-07			4.11804
1210.68	3	0.267975	-4.53796e-07			4.13605
1212.38	3	0.234009	-7.43408e-07			4.07776
1214.09	3	0.199829	-1.17371e-06			4.07806
1215.8	3	0.165527	-2.27814e-06			4.19495
1217.51	3	0.131897	-5.35583e-06			4.23492
1219.22	3	0.0978699	-1.1377e-05			4.05792
1220.93	3	0.0632935	-2.02698e-05			4.13666
1222.64	3	0.0329681	-3.14392e-05			4.07776
1224.35	3	-0.00171509	-4.39758e-05			4.07837
1226.06	3	-0.0350708	-5.72815e-05			4.11713
1227.76	3	-0.0728149	-7.06177e-05			4.07837
1229.47	3	-0.106201	-8.20618e-05			4.09851
1231.18	3	-0.140289	-8.9325e-05			3.98132
1232.89	3	-0.174988	-9.14307e-05			3.98102
1234.6	3	-0.208344	-8.92639e-05			3.94196
1236.31	3	-0.242554	-8.60901e-05			3.98102
1238.02	3	-0.277161	-8.40454e-05			3.90289
1239.73	3	-0.311279	-8.37708e-05			3.92181
1241.44	3	-0.345551	-8.53882e-05			3.9621
1243.15	3	-0.379181	-8.91724e-05			3.68408
1244.85	3	-0.412598	-9.52148e-05			3.7027
1246.56	3	-0.447357	-0.000103058			3.76129
1248.27	3	-0.481659	-0.000112122			3.74237
1249.98	3	-0.515625	-0.00012207			3.62518
1251.69	3	-0.548859	-0.00013385			3.60504
1253.4	3	-0.582825	-0.000147888			3.50769
1255.11	3	-0.588684	-0.000102234			3.38928
1256.82	3	-0.554108	-2.28363e-05			3.42926
1258.53	3	-0.520203	2.51068e-05			3.48816
1260.24	3	-0.486359	5.6366e-05			3.34991
1261.94	3	-0.451355	7.71484e-05			3.52692
1263.65	3	-0.415619	9.06677e-05			0.488892
1265.36	3	-0.384003	9.90295e-05			3.58551
1267.07	3	-0.350128	0.000102509			3.56628
1268.78	3	-0.315826	0.000101929			3.80585
1270.49	3	-0.28125	9.69238e-05			3.68347
1272.2	3	-0.247955	8.96912e-05			3.80524
1273.91	3	-0.213348	8.35876e-05			3.82507
1275.62	3	-0.17981	7.99255e-05			3.8443
1277.33	3	-0.145813	7.86133e-05			3.90259
1279.03	3	-0.111816	7.90405e-05			3.92212
1280.74	3	-0.0778198	8.09937e-05			3.98071
1282.45	3	-0.0405304	8.23669e-05			3.94196
1284.16	3	-0.00605469	8.203125E-05			3.98071
1285.87	3	0.0281647	8.01392e-05			3.98041
1287.58	3	0.0592041	7.44324e-05			4.13696
1289.29	3	0.0932312	5.69458e-05			4.0976
1290.88	3	0.124969	2.99805e-05			4.13727