Folder: electrochromicfilms/Edgar/20240515/20240515/EC_measurements/Sample_20240502_B/CV/data (part 3)

File: CV_5
Time (s)	Scan	WE(1).Potential (V)	WE(1).Current (A)	Q+	Q-	External(1).External 2 (V)
2171.07	1	0.127594	3.29041e-05			3.96118
2173.15	1	0.100616	-8.10852e-06			4.11743
2175.23	1	0.0584106	-2.20886e-05			4.05792
2177.3	1	0.0201111	-3.70087e-05			4.01947
2179.38	1	-0.0211578	-5.25513e-05			4.01978
2181.45	1	-0.0655518	-6.80237e-05			3.92212
2183.53	1	-0.106903	-7.9834e-05			3.96179
2185.6	1	-0.147308	-8.64868e-05			3.88336
2187.68	1	-0.189758	-8.72498e-05			3.88275
2189.75	1	-0.230927	-8.47168e-05			3.7616
2191.83	1	-0.272186	-8.29468e-05			3.8443
2193.9	1	-0.312805	-8.31299e-05			3.78632
2195.98	1	-0.354156	-8.59985e-05			3.60565
2198.05	1	-0.396088	-9.14307e-05			3.72284
2200.13	1	-0.437653	-9.9884e-05			3.56567
2202.2	1	-0.479126	-0.00011026			3.52722
2204.28	1	-0.520294	-0.000122498			3.58612
2206.35	1	-0.561218	-0.000137817			3.48816
2208.43	1	-0.603119	-0.000157288			3.36975
2210.5	1	-0.64447	-0.000180573			3.3316
2212.58	1	-0.685181	-0.000206238			3.27209
2214.65	1	-0.727173	-0.000232697			3.21381
2216.73	1	-0.772705	-0.000259552			3.07709
2218.8	1	-0.812073	-0.000287445			2.82318
2220.88	1	-0.854797	-0.000317902			2.90131
2222.95	1	-0.896301	-0.000350616			2.80426
2225.03	1	-0.872803	-0.000252502			2.72614
2227.11	1	-0.83313	-0.000152985			2.78412
2229.18	1	-0.791626	-7.724e-05			2.76459
2231.26	1	-0.745667	-1.95374e-05			2.88208
2233.33	1	-0.704071	2.52502e-05			2.74567
2235.41	1	-0.663849	6.01196e-05			2.82257
2237.48	1	-0.621735	8.8623e-05			2.92114
2239.56	1	-0.580994	0.000111237			2.99957
2241.63	1	-0.538757	0.000128784			3.15582
2243.71	1	-0.497894	0.000140137			3.17505
2245.78	1	-0.456116	0.000145874			3.29132
2247.86	1	-0.415649	0.000146606			3.37036
2249.93	1	-0.37384	0.000144318			3.42865
2252.01	1	-0.332611	0.000138428			3.40912
2254.08	1	-0.291656	0.000131134			3.62518
2256.16	1	-0.249969	0.000125214			3.76038
2258.23	1	-0.209076	0.000123352			3.72284
2260.31	1	-0.166718	0.000124146			3.74176
2262.38	1	-0.126404	0.000125275			3.76099
2264.46	1	-0.0842285	0.000125			3.78571
2266.53	1	-0.0405365	0.00012323			3.80463
2268.61	1	0.00108337	0.000118744			3.88336
2270.68	1	0.0430237	0.000112183			3.90228
2272.76	1	0.0809631	9.85413e-05			4.11774
2274.83	1	0.12265	6.41174e-05			4.01978
2276.91	2	0.16391	2.34436e-05			4.05853
2278.98	2	0.205048	1.11298e-05			3.82446
2281.06	2	0.246704	8.08411e-06			3.90198
2283.14	2	0.286987	6.50635e-06			4.01855
2285.21	2	0.329468	5.69153e-06			4.01947
2287.29	2	0.370544	4.97131e-06			3.96027
2289.36	2	0.411835	4.47998e-06			4.05823
2291.44	2	0.452667	4.21448e-06			4.0979
2293.51	2	0.494171	3.96729e-06			3.92181
2295.59	2	0.535095	3.86292e-06			4.05792
2297.66	2	0.576569	3.67279e-06			4.01855
2299.74	2	0.618622	3.65967e-06			3.96088
2301.81	2	0.659912	3.43292e-06			3.96027
2303.89	2	0.701263	3.35388e-06			4.09729
2305.96	2	0.742584	3.25195e-06			3.94135
2308.04	2	0.782471	3.0954e-06			4.01917
2310.11	2	0.823669	3.00415e-06			4.11682
2312.19	2	0.865173	2.82654e-06			3.88184
2314.26	2	0.907898	2.71454e-06			4.03839
2316.34	2	0.948792	2.52411e-06			4.13574
2318.41	2	0.98999	2.34619e-06			3.97949
2320.49	2	0.958252	1.70959e-06			4.03809
2322.56	2	0.916748	1.38977e-06			4.09698
2324.64	2	0.874939	1.10229e-06			3.94165
2326.71	2	0.83374	9.4574e-07			4.0387
2328.79	2	0.792542	7.78198e-07			3.97949
2330.86	2	0.750427	7.11365e-07			4.19525
2332.94	2	0.711029	5.36499e-07			3.96057
2335.01	2	0.668701	5.40466e-07			4.01886
2337.09	2	0.62738	3.65601e-07			4.01886
2339.17	2	0.586761	4.1687e-07			4.15558
2341.24	2	0.545715	2.58484e-07			4.01855
2343.32	2	0.503876	2.91748e-07			4.07776
2345.39	2	0.462646	1.92566e-07			3.98041
2347.47	2	0.420807	1.58997e-07			4.05762
2349.54	2	0.379608	1.0376e-07			3.98041
2351.62	2	0.338898	1.20239e-08			4.09821
2353.69	2	0.297882	-9.62219e-08			3.82446
2355.77	2	0.255463	-3.22266e-07			4.05853
2357.84	2	0.215088	-6.5033e-07			3.94073
2359.92	2	0.173737	-1.77704e-06			3.88245
2361.99	2	0.136353	-5.51147e-06			0.48587
2364.07	2	0.0911865	-1.35681e-05			3.90198
2366.14	2	0.0493164	-2.5412e-05			3.94165
2368.22	2	0.011203	-3.99658e-05			3.96149
2370.29	2	-0.0311737	-5.59692e-05			4.01917
2372.37	2	-0.0748901	-7.22961e-05			3.88336
2374.44	2	-0.115509	-8.52356e-05			3.88306
2376.52	2	-0.157959	-9.13696e-05			3.86383
2378.59	2	-0.19931	-9.05762e-05			3.96149
2380.67	2	-0.240601	-8.69751e-05			3.90228
2382.74	2	-0.281555	-8.49304e-05			3.76099
2384.82	2	-0.322601	-8.51746e-05			3.60504
2386.89	2	-0.364746	-8.83484e-05			3.60535
2388.97	2	-0.405579	-9.41772e-05			3.60474
2391.05	2	-0.446472	-0.000102936			3.54675
2393.12	2	-0.488129	-0.000113617			3.48785
2395.2	2	-0.530273	-0.000126343			3.50739
2397.27	2	-0.571625	-0.000142914			3.46832
2399.35	2	-0.612518	-0.000164215			3.40912
2401.42	2	-0.654022	-0.000189728			3.31146
2403.5	2	-0.695435	-0.000217468			3.21442
2405.57	2	-0.73642	-0.000245422			3.13568
2407.65	2	-0.780334	-0.000273071			3.00018
2409.72	2	-0.822144	-0.000300903			2.96021
2411.8	2	-0.863647	-0.000330109			2.98035
2413.87	2	-0.904541	-0.000360382			2.7652
2415.95	2	-0.863647	-0.000227417			2.82257
2418.02	2	-0.822144	-0.00013504			2.76459
2420.1	2	-0.78125	-6.48193e-05			2.72644
2422.17	2	-0.735535	-1.13251e-05			2.68677
2424.25	2	-0.694641	3.0191e-05			2.72583
2426.32	2	-0.653076	6.28967e-05			2.84302
2428.4	2	-0.612122	8.96912e-05			2.94037
2430.47	2	-0.570557	0.000110931			3.078
2432.55	2	-0.529938	0.000127075			3.11615
2434.62	2	-0.487793	0.000136963			3.15613
2436.7	2	-0.446686	0.000141449			3.27209
2438.77	2	-0.405853	0.000141571			3.33038
2440.85	2	-0.364655	0.000138794			3.36975
2442.92	2	-0.322449	0.000132721			3.54645
2445	2	-0.281036	0.000126007			3.64441
2447.08	2	-0.240417	0.000121521			3.70209
2449.15	2	-0.19873	0.000120544			3.72253
2451.23	2	-0.157288	0.000121643			3.74115
2453.3	2	-0.116669	0.000122406			3.84399
2455.38	2	-0.0744629	0.000121857			3.86353
2457.45	2	-0.0310913	0.000119598			3.82477
2459.53	2	0.0106659	0.000114716			3.92181
2461.6	2	0.0497742	0.00010733			3.86322
2463.68	2	0.0906677	8.96606e-05			4.05823
2465.75	3	0.132355	4.98657e-05			4.01855
2467.83	3	0.173065	1.71936e-05			3.92151
2469.9	3	0.2146	9.42383e-06			3.96149
2471.98	3	0.255463	6.99768e-06			4.07806
2474.05	3	0.296814	5.9082e-06			3.98071
2476.13	3	0.33844	5.02625e-06			4.01917
2478.2	3	0.380096	4.52576e-06			4.01917
2480.28	3	0.4216	4.01306e-06			4.039
2482.35	3	0.462402	3.8913e-06			4.0387
2484.43	3	0.504486	3.59467e-06			4.01917
2486.5	3	0.545715	3.55682e-06			3.96027
2488.58	3	0.586426	3.31757e-06			3.98071
2490.65	3	0.627747	3.28247e-06			4.01825
2492.73	3	0.66864	3.11218e-06			4.05792
2494.8	3	0.710541	3.02063e-06			4.05762
2496.88	3	0.750732	2.93274e-06			4.09698
2498.95	3	0.792542	2.81525e-06			4.07745
2501.03	3	0.83374	2.69073e-06			3.99963
2503.11	3	0.875244	2.49268e-06			4.15558
2505.18	3	0.917969	2.32147e-06			3.90137
2507.26	3	0.957642	2.10968e-06			4.21387
2509.33	3	0.990601	1.86371e-06			3.99933
2511.41	3	0.949707	1.30585e-06			4.13574
2513.48	3	0.907898	1.06537e-06			3.94073
2515.56	3	0.865173	8.20618e-07			3.94135
2517.63	3	0.825195	7.15332e-07			3.97949
2519.71	3	0.783386	5.69458e-07			4.07715
2521.78	3	0.742737	5.20935e-07			4.01825
2523.86	3	0.700653	4.20532e-07			4.11652
2525.93	3	0.659546	3.9917e-07			4.07745
2528.01	3	0.618408	3.14026e-07			3.96088
2530.08	3	0.576965	3.0426e-07			4.0976
2532.16	3	0.536194	2.24304e-07			3.96027
2534.23	3	0.49472	2.22473e-07			4.039
2536.31	3	0.453217	1.40991e-07			3.96118
2538.38	3	0.411407	1.22986e-07			4.039
2540.46	3	0.370667	6.20422e-08			3.94196
2542.53	3	0.328583	-5.63354e-08			4.01886
2544.61	3	0.286652	-1.2149e-07			4.13696
2546.68	3	0.246033	-4.45251e-07			3.88275
2548.76	3	0.205048	-7.58057e-07			4.039
2550.83	3	0.163849	-2.34985e-06			4.039
2552.91	3	0.122162	-6.86951e-06			4.07806
2554.99	3	0.0813904	-1.59485e-05			3.94104
2557.06	3	0.0425507	-2.8299e-05			3.92212
2559.14	3	0.000708008	-4.33258e-05			3.88367
2561.21	3	-0.0407013	-5.94177e-05			3.90198
2563.29	3	-0.0843201	-7.56836e-05			3.94135
2565.36	3	-0.12558	-8.73108e-05			3.90167
2567.44	3	-0.166931	-9.20105e-05			3.84399
2569.51	3	-0.208679	-9.00269e-05			3.86414
2571.59	3	-0.250092	-8.66089e-05			3.80493
2573.66	3	-0.291687	-8.5022e-05			3.66394
2575.74	3	-0.332733	-8.59985e-05			3.72162
2577.81	3	-0.374207	-8.95691e-05			3.66486
2579.89	3	-0.415161	-9.59167e-05			3.74207
2581.96	3	-0.456543	-0.000105042			3.66455
2584.04	3	-0.498505	-0.000115906			3.52722
2586.11	3	-0.539032	-0.000129486			3.54645
2588.19	3	-0.581329	-0.000147217			3.37006
2590.26	3	-0.622314	-0.000169952			3.3313
2592.34	3	-0.663055	-0.000196564			3.2724
2594.41	3	-0.704498	-0.000224701			3.17566
2596.49	3	-0.745789	-0.000252411			3.19458
2598.56	3	-0.791016	-0.00027951			3.07709
2600.64	3	-0.832825	-0.000307037			2.90192
2602.71	3	-0.872803	-0.000334961			2.88208
2604.79	3	-0.895691	-0.000319031			2.78473
2606.86	3	-0.853882	-0.000199951			2.76459
2608.94	3	-0.813293	-0.00011441			2.74536
2611.02	3	-0.771179	-4.91943e-05			2.74536
2613.09	3	-0.725983	6.74438e-08			2.80334
2615.17	3	-0.685577	3.8504e-05			2.84332
2617.24	3	-0.643707	6.87866e-05			2.86255
2619.32	3	-0.6026	9.3811e-05			3.05878
2621.39	3	-0.561554	0.000113373			3.11584
2623.47	3	-0.519958	0.000127777			3.21381
2625.54	3	-0.478027	0.000136047			3.19427
2627.62	3	-0.437531	0.000139191			3.2724
2629.69	3	-0.395691	0.00013855			3.42896
2631.77	3	-0.354523	0.000134949			3.56598
2633.84	3	-0.313477	0.000128876			3.56628
2635.92	3	-0.272217	0.00012265			3.66425
2637.99	3	-0.230011	0.000119629			3.72192
2640.07	3	-0.189331	0.000119415			3.74207
2642.14	3	-0.147766	0.000120697			3.7854
2644.22	3	-0.106964	0.000121002			3.88306
2646.29	3	-0.0646973	0.000120117			3.84369
2648.37	3	-0.0209839	0.000117218			3.98071
2650.44	3	0.0201294	0.000111694			3.86322
2652.52	3	0.0585022	0.000103058			3.88275
2654.59	3	0.100647	8.05664e-05			4.05792
2655.81	3	0.125061	5.64575e-05			4.05884

File: OCP_0
Time (s)	WE(1).Potential (V)	External(1).External 2 (V)
2.38175	1.54999	4.33685
4.38175	1.56403	4.23981
6.38175	1.57471	4.31732
8.38175	1.59088	4.33624
10.3817	1.60461	4.39423
12.3817	1.60156	4.31702
14.3817	1.59821	4.1806
16.3817	1.59332	4.25964
18.3817	1.604	4.39423
20.3817	1.60461	4.2981
22.3817	1.60339	4.29749
24.3817	1.61041	4.25934
26.3817	1.61133	4.37469
28.3817	1.14777	4.35577
30.3817	0.90271	4.41406
32.3817	1.01501	4.2981
34.3817	1.12793	4.41437
36.3817	1.22284	4.39423
38.3817	1.28571	4.375
40.3817	1.32996	4.31671
42.3817	1.36993	4.25903
44.3817	1.39771	4.2395
46.3817	1.41846	4.31732
48.3817	1.4267	4.27795
50.3817	1.43677	4.29749
52.3817	1.43829	4.31702
54.3817	1.44073	4.35577
56.3817	1.42426	4.29749
58.3817	1.41815	4.25842
60.3817	1.41876	4.43329
62.3817	1.41571	4.27887
64.3817	1.41083	4.18091
66.3817	2.09015	4.25873
68.3817	1.6626	0.407776
70.3817	1.37756	0.349548
72.3817	1.17676	0.349457
74.3817	0.92865	0.30957
76.3817	0.831909	4.39423
78.3817	0.976257	4.35516
80.3817	1.1145	4.33563
82.3817	1.21155	4.23981
84.3817	1.27563	4.29749
86.3817	1.32965	4.1214
88.3817	1.35193	4.12231
90.3817	0.917358	4.31641
92.3817	1.4682	4.27826
94.3817	1.47491	4.27856
96.3817	1.49811	4.33594
98.3817	1.81915	4.27795
100.382	1.24908	4.29779
102.382	1.6452	4.25903
104.382	2.27722	4.25934
106.382	1.3678	4.31671
108.382	1.51733	4.31732
110.382	2.33856	4.21936
112.382	1.12274	4.00482
114.382	1.66351	4.25903
116.382	2.46613	4.21967
118.382	3.40424	4.10187
120.382	0.794678	4.1806
122.382	0.799561	4.06342
124.382	2.18048	3.78998
126.382	8.13843	3.98407
128.382	2.16003	3.82843
130.382	10	3.84583
132.382	6.72791	4.06189
134.382	4.76013	4.04327
136.382	3.78693	3.88672
138.382	3.1897	4.00391
140.382	2.7829	4.02405
142.382	2.49817	3.98499
144.382	2.29431	3.94562
146.382	2.1463	3.92639
148.382	2.0285	3.84857
150.382	1.9278	4.02435
152.382	1.83777	3.90717
154.382	1.77551	3.86749
156.382	1.72607	3.88702
158.382	1.68884	4.02405
160.382	1.6507	4.08325
162.382	1.6275	4.02466
164.382	1.61041	3.94623
166.382	1.59332	3.80951
168.382	1.58112	3.86749
170.382	1.56708	4.00482
172.382	1.57623	3.96606
174.382	1.5921	3.84827
176.382	1.63452	3.94623
178.382	1.63849	3.8681
180.382	1.61652	3.88733
182.382	1.651	3.88794
184.382	1.67023	3.84827
186.382	1.63086	3.78998
188.382	1.6333	3.96545
190.382	1.21887	3.92639
192.382	1.92017	3.98499
194.382	-2.39044	4.04449
196.382	-0.23584	3.96637
198.382	-0.136566	4.00452
200.382	0.534363	3.96515
202.382	4.01825	3.90625
204.382	2.76733	3.90686
206.382	2.3761	3.90686
208.382	1.34491	3.90686
210.382	1.54388	3.92639
212.382	1.5451	4.04327
214.382	1.56403	4.0625
216.382	2.13043	4.02435
218.382	-2.23846	4.06403
220.382	-1.68396	4.14185
222.382	-0.47699	3.88763
224.382	1.34033	3.94562
226.382	-0.12677	3.98529
228.382	6.30829	3.92517
230.382	2.8949	3.92609
232.382	2.43622	3.96545
234.382	2.08893	3.94592
236.382	1.90155	3.94623
238.382	1.76727	3.9267
240.382	1.67847	3.9267
242.382	1.61469	3.94592
244.382	1.55975	3.90656
246.382	1.53534	3.84857
248.382	1.49261	3.94623
250.382	1.51917	3.9267
252.382	1.45782	4.06311
254.382	1.31744	3.82904
256.382	2.99652	4.00421
258.382	1.65894	4.02405
260.382	-2.97729	4.0448
262.382	-0.558777	4.04388
264.382	0.289917	4.27826
266.382	0.500183	4.2395
268.382	0.603027	4.12231
270.382	0.514832	4.12231
272.382	1.10077	4.14093
274.382	5.42786	4.10126
276.382	3.86871	4.12109
278.382	2.85248	4.06311
280.382	1.89087	0.586853
282.382	0.117096	4.12201
284.382	0.1171875	4.06311
286.382	0.117249	4.1806
288.382	0.117371	4.10248
290.382	0.117462	3.96637
292.382	0.117554	3.98529
294.382	0.117645	4.00482
296.382	0.117737	4.08325
298.382	0.117859	4.00421
300.382	0.11792	4.00452
302.382	0.118042	4.02405
304.382	0.118134	4.16107
306.382	0.118225	4.12231
308.382	0.118317	4.12231
310.382	0.118408	3.98499
312.382	0.1185	4.02374
314.382	0.118622	4.04358
316.382	0.118713	4.20013
318.382	0.118835	4.16107
320.382	0.118896	4.08264
322.382	0.118988	4.02405
324.382	0.11908	0.470581
326.382	0.119202	4.04388
328.382	0.119293	4.16107
330.382	0.119385	4.02405
332.382	0.119446	4.10278
334.382	0.119537	4.00421
336.382	0.119629	3.96545
338.382	0.11972	4.08264
340.382	0.119812	3.94684
342.382	0.119904	4.00482
344.382	0.119995	4.02466
346.382	0.120117	4.10278
348.382	0.120209	4.04358
350.382	0.12027	4.10248
352.382	0.120392	4.06311
354.382	0.120483	4.04388
356.382	0.120575	4.04388
358.382	0.120697	4.06281
360.382	0.120789	4.06342
362.382	0.12088	4.10278
364.382	0.120972	4.00421
366.382	0.121063	4.02466
368.382	0.121155	4.02405
370.382	0.121246	3.96606
372.382	0.121338	4.21967
374.382	0.121429	4.14154
376.382	0.121521	4.14093
378.382	0.121613	4.06281
380.382	0.121674	4.12231
382.382	0.121765	3.96606
384.382	0.121857	4.14124
386.382	0.121918	4.02496
388.382	0.12204	4.08295
390.382	0.122101	4.00452
392.382	0.122223	3.96545
394.382	0.122314	4.04388
396.382	0.122406	3.98499
398.382	0.122498	4.04327
400.382	0.12262	4.04419
401.382	0.12265	4.1217

File: OCP_1
Time (s)	WE(1).Potential (V)	External(1).External 2 (V)
402.843	0.122711	4.06281
403.843	0.122772	4.02435
404.843	0.122803	4.12262
405.843	0.122864	4.10309
406.843	0.122864	3.98621
407.843	0.122925	4.06281
408.843	0.122955	3.9859
409.843	0.123016	3.98529
410.843	0.123047	4.02405
411.843	0.123108	4.14124
412.843	0.123169	3.96667
413.843	0.123199	3.98651
414.843	0.12323	4.14154
415.843	0.123291	4.02405
416.843	0.123352	4.06342
417.843	0.123383	4.10217
418.843	0.123444	4.00513
419.843	0.123474	4.12292
420.843	0.123505	4.14093
421.843	0.123566	4.04388
422.843	0.123596	4.02435
423.843	0.123657	4.14185
424.843	0.123688	4.00482
425.843	0.123718	4.04388
426.843	0.123779	4.00482
427.843	0.12384	4.06281
428.843	0.123871	4.18091
429.843	0.123932	4.14215
430.843	0.123962	4.04388
431.843	0.124023	4.06311
432.843	0.124084	4.04419
433.843	0.124115	4.08264
434.843	0.124176	4.02405
435.843	0.124237	4.02466
436.843	0.124268	4.02435
437.843	0.124329	4.08264
438.843	0.124359	3.92639
439.843	0.12442	4.00482
440.843	0.124481	4.20013
441.843	0.124512	4.04358
442.843	0.124573	4.12231
443.843	0.124634	4.14185
444.843	0.124664	4.04388
445.843	0.124725	4.10248
446.843	0.124756	4.08264
447.843	0.124817	4.00421
448.843	0.124847	4.06372
449.843	0.124878	4.06281
450.843	0.124908	3.94623
451.843	0.124969	4.02466
452.843	0.125031	4.08264
453.843	0.125061	4.06342
454.843	0.125122	3.96637
455.843	0.125122	4.04327
456.843	0.125183	4.04388
457.843	0.125214	3.98529
458.843	0.125275	4.10309
459.843	0.125305	3.98499
460.843	0.125366	4.08295
461.843	0.125397	4.08234
462.843	0.125458	4.04388
463.843	0.125488	4.10248
464.843	0.125549	4.10309
465.843	0.12558	3.96576
466.843	0.125641	4.06311
467.843	0.125671	4.02435
468.843	0.125702	3.96576
469.843	0.125763	4.12231
470.843	0.125824	4.06311
471.843	0.125854	4.04358
472.843	0.125916	4.18091
473.843	0.125946	4.08295
474.843	0.125977	4.08325
475.843	0.126007	4.02435
476.843	0.126068	4.00482
477.843	0.126129	4.08264
478.843	0.12616	4.10278
479.843	0.12619	4.04388
480.843	0.126251	3.90656
481.843	0.126282	4.08325
482.843	0.126343	4.08325
483.843	0.126373	3.98529
484.843	0.126404	4.02405
485.843	0.126465	4.04358
486.843	0.126495	4.08295
487.843	0.126556	4.06311
488.843	0.126587	4.0625
489.843	0.126648	4.1806
490.843	0.126678	4.06311
491.843	0.12674	3.98621
492.843	0.12677	4.12201
493.843	0.126831	4.12262
494.843	0.126892	4.16138
495.843	0.126923	4.02435
496.843	0.126953	3.98468
497.843	0.127014	4.06311
498.843	0.127075	4.10339
499.843	0.127106	4.04388
500.843	0.127136	3.9856
501.843	0.127197	4.08234
502.843	0.127228	4.08264
503.843	0.127289	4.06281
504.843	0.12735	4.02405
505.843	0.12735	4.10309
506.843	0.127441	4.10309
507.843	0.127472	4.02435
508.843	0.127502	4.02496
509.843	0.127533	4.08264
510.843	0.127594	3.98529
511.843	0.127655	3.94592
512.843	0.127686	4.12262
513.843	0.127716	4.04388
514.843	0.127777	4.1806
515.843	0.127808	4.1806
516.843	0.127838	4.12231
517.843	0.127899	3.98499
518.843	0.12796	4.06311
519.843	0.127991	4.06311
520.843	0.128052	4.06342
521.843	0.128082	4.08295

File: OCP_3
Time (s)	WE(1).Potential (V)	External(1).External 2 (V)
2656.83	0.0898132	4.06342
2657.83	0.0827942	3.96606
2658.83	0.0776367	4.10248
2659.83	0.0735779	4.04327
2660.83	0.0702515	4.02405
2661.83	0.0674744	3.98468
2662.83	0.065094	3.94684
2663.83	0.0629883	4.00421
2664.83	0.0611572	4.12231
2665.83	0.0595093	4.02405
2666.83	0.0580444	4.16046
2667.83	0.0567627	4.02496
2668.83	0.0555725	4.04388
2669.83	0.0545044	4.02527
2670.83	0.0534668	3.98499
2671.83	0.0525818	4.12201
2672.83	0.0517273	4.10248
2673.83	0.0509338	3.96576
2674.83	0.0502319	4.06342
2675.83	0.0495605	3.98529
2676.83	0.0488983	3.96545
2677.83	0.0483307	4.04388
2678.83	0.0477844	3.9859
2679.83	0.0472534	3.88733
2680.83	0.0467712	4.00482
2681.83	0.0463287	3.96576
2682.83	0.0459015	4.06311
2683.83	0.0454987	3.96545
2684.83	0.0451202	3.98529
2685.83	0.0447723	4.10309
2686.83	0.0444244	4.08264
2687.83	0.0440796	4.06311
2688.83	0.0437836	4.08325
2689.83	0.0434723	4.04358
2690.83	0.0432037	3.8681
2691.83	0.0429321	3.96606
2692.83	0.0426544	4.04327
2693.83	0.0424286	4.06311
2694.83	0.0421906	3.96606
2695.83	0.0419647	4.08295
2696.83	0.0417267	4.02466
2697.83	0.0415314	4.04388
2698.83	0.0413086	4.02435
2699.83	0.0411285	4.10309
2700.83	0.0409393	4.08295
2701.83	0.040741	4.04327
2702.83	0.0405884	3.9856
2703.83	0.0404266	4.04449
2704.83	0.0402527	4.06372
2705.83	0.0401093	4.16229
2706.83	0.0399628	4.12231
2707.83	0.0398224	4.02435
2708.83	0.0396942	4.00482
2709.83	0.0395752	4.04419
2710.83	0.0394653	3.9856
2711.83	0.039328	3.94623
2712.83	0.0392181	3.98529
2713.83	0.0391144	4.06281
2714.83	0.0390137	4.10248
2715.83	0.0389221	3.94653
2716.83	0.0388458	4.06311
2717.83	0.038736	3.9856
2718.83	0.0386536	4.04388
2719.83	0.0385773	4.02405
2720.83	0.0384979	4.02435
2721.83	0.0384125	3.94714
2722.83	0.0383331	3.96515
2723.83	0.038266	3.94653
2724.83	0.038205	4.08264
2725.83	0.0381439	3.92609
2726.83	0.0380737	3.96576
2727.83	0.0380035	4.02405
2728.83	0.0379333	4.04297
2729.83	0.0378662	3.98529
2730.83	0.0378296	4.16107
2731.83	0.0377686	4.08356
2732.83	0.0377075	4.06311
2733.83	0.037674	3.96637
2734.83	0.0376068	4.06281
2735.83	0.0375549	4.02435
2736.83	0.0375031	3.98529
2737.83	0.0374847	4.16107
2738.83	0.0374512	3.96606
2739.83	0.0374207	4.06311
2740.83	0.0373718	4.02405
2741.83	0.0373413	4.04388
2742.83	0.0373108	4.00452
2743.83	0.0373047	3.9856
2744.83	0.0372772	4.02435
2745.83	0.0372528	4.06311
2746.83	0.0372131	4.10278
2747.83	0.0372101	3.9856
2748.83	0.0371887	3.90686
2749.83	0.0371704	4.08264
2750.83	0.0371613	3.96637
2751.83	0.0371307	3.9856
2752.83	0.0371216	4.04388
2753.83	0.0371277	4.06311
2754.83	0.0371155	3.96606
2755.83	0.0371155	3.9859
2756.83	0.0371094	4.02405
2757.83	0.0371033	3.92639
2758.83	0.0371002	4.10309
2759.83	0.0370972	3.9859
2760.83	0.0370941	4.02435
2761.83	0.0370911	4.04449
2762.83	0.037088	3.98529
2763.83	0.0370911	3.96667
2764.83	0.0370911	4.08264
2765.83	0.037088	4.04388
2766.83	0.0370911	4.02466
2767.83	0.0370758	4.06281
2768.83	0.0370789	3.98499
2769.83	0.0370819	3.98499
2770.83	0.037088	4.06281
2771.83	0.0370941	3.86749
2772.83	0.0371216	3.94653
2773.83	0.0371124	3.96545
2774.83	0.0371216	4.08295
2775.83	0.0371307	4.06311
2776.83	0.0371399	3.96545
2777.83	0.0371521	4.06281
2778.83	0.0371643	3.9856
2779.83	0.0371735	3.98499
2780.83	0.0371887	4.00513
2781.83	0.037204	4.10309
2782.83	0.0372162	3.96545
2783.83	0.0372345	4.10278
2784.83	0.0372498	3.9856
2785.83	0.037265	4.00482
2786.83	0.0372925	4.08234
2787.83	0.0373199	3.9859
2788.83	0.0373383	4.12262
2789.83	0.0373474	3.94653
2790.83	0.0373901	3.98529
2791.83	0.0374023	3.88733
2792.83	0.0374237	4.00513
2793.83	0.0374634	3.96576
2794.83	0.0374939	4.04388
2795.83	0.0375	4.02435
2796.83	0.0375427	3.9267
2797.83	0.0375458	3.96606
2798.83	0.0375641	4.06311
2799.83	0.0375854	4.00482
2800.83	0.0376099	4.10217
2801.83	0.0376587	3.9267
2802.83	0.0376831	3.96606
2803.83	0.0377075	3.94684
2804.83	0.037738	4.08295
2805.83	0.0377625	3.96637
2806.83	0.037793	3.96576
2807.83	0.0378052	3.96454
2808.83	0.0378357	4.00482
2809.83	0.0378662	4.04358
2810.83	0.0378937	3.98529
2811.83	0.0379242	4.02374
2812.83	0.0379761	3.94714
2813.83	0.0380096	3.84918
2814.83	0.0380432	3.88794
2815.83	0.0380585	3.92639
2816.83	0.0380951	4.06311
2817.83	0.0381287	4.1037
2818.83	0.0381622	4.04419
2819.83	0.0381958	3.90686
2820.83	0.0382355	3.92731
2821.83	0.0382782	4.06311
2822.83	0.038324	4.14215
2823.83	0.0383606	4.00513
2824.83	0.038382	4.06281
2825.83	0.0384369	3.9267
2826.83	0.0384766	4.06342
2827.83	0.0384979	4.08325
2828.83	0.0385376	3.9856
2829.83	0.0385803	3.98499
2830.83	0.038623	4.10339
2831.83	0.0386627	3.927
2832.83	0.0386993	4.06281
2833.83	0.0387421	3.96606
2834.83	0.0387848	3.96606
2835.83	0.0388489	3.98529