Folder: electrochromicfilms/Edgar/20240417/20240417/electrodeposition_pulsed_potential_B/data

File: OCP_1
Time (s)	WE(1).Potential (V)
1.88022	0.601196
2.88022	0.601501
3.88022	0.601501
4.88022	0.601501
5.88022	0.601501
6.88022	0.601501
7.88022	0.601501
8.88022	0.601501
9.88022	0.601501
10.8802	0.601807
11.8802	0.601807
12.8802	0.601807
13.8802	0.601807
14.8802	0.601807
15.8802	0.601807
16.8802	0.601807
17.8802	0.601807
18.8802	0.602112
19.8802	0.602112
20.8802	0.602112
21.8802	0.602112
22.8802	0.602112
23.8802	0.602112
24.8802	0.602112
25.8802	0.602417
26.8802	0.602417
27.8802	0.602417
28.8802	0.602417
29.8802	0.602417
30.8802	0.602417
31.8802	0.602417
32.8802	0.602417
33.8802	0.602417
34.8802	0.602417
35.8802	0.602722
36.8802	0.602722
37.8802	0.602722
38.8802	0.602722
39.8802	0.602722
40.8802	0.602722
41.8802	0.602722
42.8802	0.602722
43.8802	0.603027
44.8802	0.603027
45.8802	0.603027
46.8802	0.603027
47.8802	0.603027
48.8802	0.603027
49.8802	0.603027
50.8802	0.603027
51.8802	0.603027
52.8802	0.603333
53.8802	0.603333
54.8802	0.603333
55.8802	0.603333
56.8802	0.603333
57.8802	0.603333
58.8802	0.603333
59.8802	0.603333
60.8802	0.603333
61.8802	0.603638
62.8802	0.603638
63.8802	0.603638
64.8802	0.603638
65.8802	0.603638
66.8802	0.603638
67.8802	0.603943
68.8802	0.603943
69.8802	0.603943
70.8802	0.603943
71.8802	0.603943
72.8802	0.604248
73.8802	0.603943
74.8802	0.603943
75.8802	0.604248
76.8802	0.604248
77.8802	0.604248
78.8802	0.604248
79.8802	0.604248
80.8802	0.604248
81.8802	0.604248
82.8802	0.604553
83.8802	0.604553
84.8802	0.604553
85.8802	0.604553
86.8802	0.604553
87.8802	0.604553
88.8802	0.604553
89.8802	0.604553
90.8802	0.604553
91.8802	0.604858
92.8802	0.604858
93.8802	0.604858
94.8802	0.604858
95.8802	0.604858
96.8802	0.604858
97.8802	0.604858
98.8802	0.605164
99.8802	0.605164
100.88	0.605164
101.88	0.605164
102.88	0.605164
103.88	0.605164
104.88	0.605164
105.88	0.605164
106.88	0.605469
107.88	0.605469
108.88	0.605469
109.88	0.605469
110.88	0.605469
111.88	0.605469
112.88	0.605774
113.88	0.605774
114.88	0.605774
115.88	0.605774
116.88	0.605774
117.88	0.605774
118.88	0.605774
119.88	0.605774
120.88	0.605774
121.88	0.606079
122.88	0.606079
123.88	0.606079
124.88	0.606079
125.88	0.606079
126.88	0.606079
127.88	0.606079
128.88	0.606384
129.88	0.606384
130.88	0.606384
131.88	0.606384
132.88	0.606384
133.88	0.606384
134.88	0.606384
135.88	0.606384
136.88	0.606384
137.88	0.606689
138.88	0.606689
139.88	0.606689
140.88	0.606689
141.88	0.606689
142.88	0.606689
143.88	0.606689
144.88	0.606689
145.88	0.606995
146.88	0.606995
147.88	0.606995
148.88	0.606995
149.88	0.606995
150.88	0.606995
151.88	0.606995
152.88	0.606995
153.88	0.606995
154.88	0.606995
155.88	0.606995
156.88	0.6073
157.88	0.6073
158.88	0.6073
159.88	0.6073
160.88	0.6073
161.88	0.6073
162.88	0.6073
163.88	0.6073
164.88	0.6073
165.88	0.607605
166.88	0.607605
167.88	0.607605
168.88	0.607605
169.88	0.607605
170.88	0.607605
171.88	0.607605
172.88	0.607605
173.88	0.607605
174.88	0.607605
175.88	0.607605
176.88	0.607605
177.88	0.60791
178.88	0.60791
179.88	0.60791
180.88	0.60791

File: OCP_3
Time (s)	WE(1).Potential (V)
4156.12	0.570068
4157.12	0.53894
4158.12	0.51178
4159.12	0.488037
4160.12	0.468506
4161.12	0.452667
4162.12	0.440216
4163.12	0.430756
4164.12	0.423737
4165.12	0.41864
4166.12	0.415039
4167.12	0.412567
4168.12	0.410919
4169.12	0.409912
4170.12	0.409424
4171.12	0.409332
4172.12	0.409515
4173.12	0.409943
4174.12	0.410522
4175.12	0.411255
4176.12	0.412048
4177.12	0.412964
4178.12	0.41391
4179.12	0.414917
4180.12	0.415955
4181.12	0.416992
4182.12	0.418121
4183.12	0.41922
4184.12	0.420319
4185.12	0.421448
4186.12	0.422546
4187.12	0.423645
4188.12	0.424774
4189.12	0.425903
4190.12	0.427002
4191.12	0.428101
4192.12	0.429169
4193.12	0.430237
4194.12	0.431305
4195.12	0.432343
4196.12	0.43338
4197.12	0.434418
4198.12	0.435425
4199.12	0.436432
4200.12	0.437378
4201.12	0.438354
4202.12	0.439331
4203.12	0.440247
4204.12	0.441162
4205.12	0.442078
4206.12	0.442993
4207.12	0.443878
4208.12	0.444733
4209.12	0.445587
4210.12	0.446442
4211.12	0.447266
4212.12	0.44809
4213.12	0.448883
4214.12	0.449646
4215.12	0.450439
4216.12	0.451202
4217.12	0.451935
4218.12	0.452667
4219.12	0.4534
4220.12	0.454102
4221.12	0.454803
4222.12	0.455505
4223.12	0.456177
4224.12	0.456848
4225.12	0.45752
4226.12	0.45816
4227.12	0.458832
4228.12	0.459473
4229.12	0.460083
4230.12	0.460724
4231.12	0.461304
4232.12	0.461884
4233.12	0.462463
4234.12	0.463013
4235.12	0.463593
4236.12	0.464142
4237.12	0.464691
4238.12	0.46524
4239.12	0.465759
4240.12	0.466278
4241.12	0.466827
4242.12	0.467346
4243.12	0.467865
4244.12	0.468353
4245.12	0.468872
4246.12	0.46936
4247.12	0.469849
4248.12	0.470306
4249.12	0.470795
4250.12	0.471252
4251.12	0.47171
4252.12	0.472137
4253.12	0.472565
4254.12	0.472992
4255.12	0.473419
4256.12	0.473846
4257.12	0.474274
4258.12	0.47467
4259.12	0.475098
4260.12	0.475494
4261.12	0.475891
4262.12	0.476257
4263.12	0.476654
4264.12	0.47702
4265.12	0.477417
4266.12	0.477783
4267.12	0.478149
4268.12	0.478516
4269.12	0.478882
4270.12	0.479279
4271.12	0.479645
4272.12	0.480011
4273.12	0.480347
4274.12	0.480743
4275.12	0.48111
4276.12	0.481445
4277.12	0.481781
4278.12	0.482147
4279.12	0.482483
4280.12	0.482819
4281.12	0.483154
4282.12	0.48349
4283.12	0.483795
4284.12	0.484131
4285.12	0.484436
4286.12	0.484772
4287.12	0.485077
4288.12	0.485382
4289.12	0.485687
4290.12	0.485992
4291.12	0.486298
4292.12	0.486603
4293.12	0.486908
4294.12	0.487213
4295.12	0.487518
4296.12	0.487793
4297.12	0.488068
4298.12	0.488373
4299.12	0.488678
4300.12	0.488953
4301.12	0.489227
4302.12	0.489532
4303.12	0.489807
4304.12	0.490082
4305.12	0.490326
4306.12	0.490601
4307.12	0.490875
4308.12	0.49115
4309.12	0.491425
4310.12	0.491699
4311.12	0.491943
4312.12	0.492218
4313.12	0.492493
4314.12	0.492737
4315.12	0.492981
4316.12	0.493256
4317.12	0.49353
4318.12	0.493774
4319.12	0.494019
4320.12	0.494263
4321.12	0.494507
4322.12	0.494781
4323.12	0.495026
4324.12	0.49527
4325.12	0.495514
4326.12	0.495758
4327.12	0.496002
4328.12	0.496277
4329.12	0.49649
4330.12	0.496735
4331.12	0.496948
4332.12	0.497192
4333.12	0.497437
4334.12	0.49762
4335.12	0.497864

File: pulses_0_to_1000.txt
Time (s)	WE(1).Potential (V)	WE(1).Current (A)
181.576	-0.699738	-0.00428223
185.936	0.608337	-2.2583e-06
190.256	0.607788	-2.34985e-06
194.596	-0.698669	-0.0066806
198.956	0.607758	9.46045e-07
203.276	0.607574	-2.65503e-06
207.616	-0.699188	-0.00762024
211.976	0.607208	-3.78418e-06
216.296	0.606659	3.78418e-06
220.636	-0.699615	-0.0079834
224.996	0.606934	2.41089e-06
229.316	0.607422	-7.01904e-07
233.676	0.000753784	0.0083252
238.016	0.6073	-7.01904e-07
242.336	0.606659	4.30298e-06
246.696	0.00017395	0.00488281
251.036	0.60675	4.11987e-06
255.356	0.607697	-3.96729e-06
259.716	1.83105e-05	0.00285065
264.056	0.607513	-3.66211e-07
268.376	0.606995	9.15527e-08
272.736	-0.000524902	0.00168945
277.076	0.606628	4.39453e-06
281.396	0.607758	-1.70898e-06
285.776	0.606415	0.0106384
290.096	0.607971	-4.73022e-06
294.416	0.608307	-8.69751e-06
298.796	0.608246	0.00103027
303.116	0.606659	4.11987e-06
307.436	0.608185	-7.38525e-06
311.816	0.607513	0.000304535
316.136	0.606506	5.52368e-06
320.456	0.606628	3.38745e-06
324.836	0.607239	0.000142548
329.156	0.606628	4.85229e-06
333.476	0.608093	-7.38525e-06
337.856	0.60675	9.03931e-05
342.176	0.608246	-7.41577e-06
346.496	0.608032	-5.37109e-06
350.876	0.606812	6.05164e-05
355.196	0.607452	-4.88281e-07
359.516	0.607819	-5.88989e-06
363.896	0.608246	3.83301e-05
368.216	0.608185	-6.04248e-06
372.536	0.606598	5.52368e-06
376.916	0.606812	3.82385e-05
381.236	0.606628	5.09644e-06
385.556	0.606812	1.0376e-06
389.936	0.607941	2.23083e-05
394.256	0.608093	-6.22559e-06
398.576	0.606567	3.63159e-06
402.956	0.607635	1.98975e-05
407.276	0.606964	4.27246e-06
411.596	0.608063	-7.01904e-06
415.976	0.606842	2.22168e-05
420.296	0.607391	-6.71387e-07
424.616	0.607605	-5.5542e-06
428.996	0.607971	1.39465e-05
433.316	0.608063	-6.10352e-06
437.636	0.608154	-6.04248e-06
442.016	0.607452	1.72729e-05
446.336	0.608246	-6.50024e-06
450.676	-0.697632	-0.0253967
455.036	0.607788	1.06506e-05
459.356	0.607941	-5.40161e-06
463.696	-0.698914	-0.0217407
468.056	0.608246	6.22559e-06
472.376	0.608246	-4.45557e-06
476.716	-0.698059	-0.0194061
481.076	0.607849	7.62939e-06
485.396	0.60788	-4.08936e-06
489.736	-0.699127	-0.0177521
494.096	0.607361	1.13831e-05
498.416	0.607941	-5.46265e-06
502.776	-0.000231934	0.00610565
507.116	0.606659	1.84326e-05
511.436	0.608215	-7.01904e-06
515.796	0.000241089	0.00469452
520.136	0.607178	1.34583e-05
524.456	0.607483	1.2207e-07
528.816	0.000952148	0.00354279
533.156	0.606873	1.59607e-05
537.476	0.60675	6.68335e-06
541.836	0.000201416	0.00262482
546.176	0.607758	9.24683e-06
550.496	0.607758	-2.74658e-06
554.876	0.605621	0.0186096
559.196	0.608368	4.36401e-06
563.516	0.608215	-6.83594e-06
567.896	0.606567	0.0145996
572.216	0.608124	7.44629e-06
576.536	0.608185	-5.21851e-06
580.916	0.607208	0.0089386
585.236	0.607758	1.01624e-05
589.556	0.608185	-5.98145e-06
593.936	0.607452	0.00215393
598.256	0.608307	7.01904e-06
602.576	0.606781	6.22559e-06
606.956	0.607513	0.0010614
611.276	0.608124	7.99561e-06
615.596	0.608124	-2.96021e-06
619.976	0.607605	0.000662842
624.296	0.607056	1.3855e-05
628.616	0.608093	-3.90625e-06
632.996	0.607422	0.000467468
637.316	0.607422	1.27563e-05
641.636	0.606689	6.073e-06
646.016	0.608032	0.00034668
650.336	0.608246	9.33838e-06
654.656	0.608246	-3.57056e-06
659.036	0.608246	0.000274261
663.356	0.606689	2.05688e-05
667.676	0.606659	8.23975e-06
672.056	0.606995	0.000234467
676.376	0.607605	1.54724e-05
680.696	0.608093	-1.64795e-06
685.076	0.607941	0.00019397
689.396	0.608215	9.79614e-06
693.716	0.607208	4.3335e-06
698.096	0.607574	0.000167572
702.416	0.608307	9.46045e-06
706.736	0.606628	8.94165e-06
711.116	0.606598	0.000157288
715.436	0.607086	1.953125E-05
719.776	-0.698334	-0.0268829
724.136	0.607666	0.000133606
728.456	0.608032	1.28479e-05
732.796	-0.697296	-0.0240417
737.156	0.607788	0.000119537
741.476	0.606842	2.19727e-05
745.816	-0.697906	-0.0219086
750.176	0.608002	0.00010733
754.496	0.608276	9.33838e-06
758.836	-0.698975	-0.020282
763.196	0.608215	9.71069e-05
767.516	0.607849	1.41907e-05
771.876	0.000128174	0.00419891
776.216	0.606842	9.61304e-05
780.536	0.608276	1.21765e-05
784.896	-0.000442505	0.0032251
789.236	0.608215	8.29468e-05
793.556	0.606689	2.34375e-05
797.916	0.000946045	0.00247192
802.257	0.606628	8.89282e-05
806.577	0.608063	1.20544e-05
810.937	0.000582886	0.0018869
815.277	0.607971	7.47986e-05
819.597	0.606659	2.39563e-05
823.977	0.606598	0.0191925
828.297	0.606842	7.73621e-05
832.617	0.608246	1.25122e-05
836.997	0.606628	0.0159027
841.317	0.607635	7.04346e-05
845.637	0.607025	2.18506e-05
850.017	0.607727	0.0120422
854.337	0.607086	6.9519e-05
858.657	0.607269	1.7395e-05
863.037	0.607269	0.00396149
867.357	0.608276	5.88379e-05
871.677	0.607056	2.17285e-05
876.057	0.606964	0.00181152
880.377	0.608246	5.57556e-05
884.697	0.606995	2.02942e-05
889.077	0.608154	0.00114868
893.397	0.608032	5.52368e-05
897.717	0.606628	2.5116e-05
902.097	0.606537	0.000836487
906.417	0.608246	5.23987e-05
910.737	0.608215	1.34583e-05
915.117	0.608276	0.000634155
919.437	0.607483	5.75562e-05
923.757	0.606689	2.15454e-05
928.137	0.608154	0.000510254
932.457	0.608093	5.0293e-05
936.777	0.608002	1.50452e-05
941.157	0.606659	0.000435272
945.477	0.607422	5.00793e-05
949.797	0.608093	1.37939e-05
954.177	0.60672	0.000371429
958.497	0.606659	5.66101e-05
962.817	0.607605	1.71814e-05
967.197	0.606598	0.000319824
971.517	0.606689	5.6366e-05
975.837	0.607574	2.10266e-05
980.217	0.607971	0.000276154
984.537	0.607544	4.77295e-05
988.877	-0.698212	-0.0270813
993.237	0.607269	0.000251282
997.557	0.608368	4.3396e-05
1001.9	-0.69754	-0.0247131
1006.26	0.607819	0.000221497
1010.58	0.607422	4.87671e-05
1014.92	-0.6987	-0.0229156
1019.28	0.608398	0.000198456
1023.6	0.608246	3.89709e-05
1027.94	-0.697296	-0.0214355
1032.3	0.607361	0.000189697
1036.62	0.607056	4.80347e-05
1040.98	-0.000650024	0.00326569
1045.32	0.607483	0.00017215
1049.64	0.607178	4.80347e-05
1054	0.000994873	0.00246796
1058.34	0.607574	0.000159943
1062.66	0.607269	4.28772e-05
1067.02	-0.000637817	0.00182556
1071.36	0.60672	0.000151276
1075.68	0.60672	4.58374e-05
1080.04	-0.000570679	0.00140961
1084.38	0.608276	0.000132507
1088.7	0.606628	4.49219e-05
1093.08	0.606873	0.0192719
1097.4	0.608246	0.000125092
1101.72	0.60675	4.55322e-05
1106.1	0.606171	0.0162689
1110.42	0.608276	0.000117126
1114.74	0.608063	3.52478e-05
1119.12	0.607391	0.0127686
1123.44	0.606598	0.00012262
1127.76	0.608185	3.57361e-05
1132.14	0.607361	0.00540039
1136.46	0.608154	0.000104218
1140.78	0.608246	3.25012e-05
1145.16	0.608154	0.00229797
1149.48	0.608337	9.8999e-05
1153.8	0.607422	3.78418e-05
1158.18	0.608032	0.00147736
1162.5	0.606903	0.000104889
1166.82	0.607971	3.37219e-05
1171.2	0.608154	0.00107666
1175.52	0.606995	0.000100067
1179.84	0.607849	3.41187e-05
1184.22	0.607727	0.000842285
1188.54	0.606964	9.4635e-05
1192.86	0.606598	4.26025e-05
1197.24	0.607147	0.000689392
1201.56	0.607391	8.71887e-05
1205.88	0.606781	4.0863e-05
1210.26	0.607544	0.000571899
1214.58	0.607819	8.14819e-05
1218.9	0.607269	3.71704e-05
1223.28	0.607574	0.000493469
1227.6	0.607941	7.72705e-05
1231.92	0.607391	3.50952e-05
1236.3	0.606628	0.000436462
1240.62	0.607056	8.27942e-05
1244.94	0.606995	3.75671e-05
1249.32	0.607513	0.000374725
1253.64	0.606995	7.75146e-05
1257.98	-0.696838	-0.0271942
1262.34	0.607758	0.000332886
1266.66	0.606689	7.77588e-05
1271	-0.698669	-0.0249634
1275.36	0.608276	0.000298553
1279.68	0.607849	6.97937e-05
1284.02	-0.697968	-0.0234711
1288.38	0.607422	0.000276031
1292.7	0.607422	6.90918e-05
1297.04	-0.698059	-0.0221558
1301.4	0.607361	0.000252533
1305.72	0.607361	6.70166e-05
1310.08	0.000149536	0.00267914
1314.42	0.607391	0.000233246
1318.74	0.607391	6.48193e-05
1323.1	0.000204468	0.00205658
1327.44	0.607452	0.000215942
1331.76	0.607422	6.29883e-05
1336.12	0.000219727	0.00159393
1340.46	0.607422	0.000202179
1344.78	0.607452	6.21643e-05
1349.14	0.00022583	0.00122803
1353.48	0.607483	0.000187622
1357.8	0.607422	5.99976e-05
1362.18	0.606354	0.0193542
1366.5	0.607391	0.000175323
1370.82	0.607422	5.88074e-05
1375.2	0.606567	0.0164703
1379.52	0.607422	0.00016568
1383.84	0.607452	5.71899e-05
1388.22	0.606781	0.0131683
1392.54	0.607452	0.000156616
1396.86	0.607422	5.59998e-05
1401.24	0.607269	0.00636749
1405.56	0.607422	0.000147919
1409.88	0.607422	5.49622e-05
1414.26	0.607361	0.00260681
1418.58	0.607422	0.000140503
1422.9	0.607391	5.34668e-05
1427.28	0.607361	0.00169739
1431.6	0.607422	0.000133118
1435.92	0.607452	5.22461e-05
1440.3	0.607361	0.00125641
1444.62	0.607391	0.00012735
1448.94	0.607391	5.13611e-05
1453.32	0.607361	0.000990601
1457.64	0.607422	0.00012207
1461.96	0.607452	5.08423e-05
1466.34	0.607361	0.000812683
1470.66	0.607452	0.000116699
1474.98	0.607391	4.9408e-05
1479.36	0.607361	0.000686646
1481.54	0.607452	4.5166e-05

File: pulses_1000_to_2000.txt
Time (s)	WE(1).Potential (V)	WE(1).Current (A)
1506.41	-0.697723	-0.0272461
1510.77	0.607452	0.000363464
1515.09	0.607422	8.66089e-05
1519.43	-0.697845	-0.0251007
1523.79	0.607452	0.000347137
1528.11	0.607422	8.62427e-05
1532.45	-0.697937	-0.0237274
1536.81	0.607422	0.000319916
1541.13	0.607391	8.38623e-05
1545.47	-0.698029	-0.0225525
1549.83	0.607422	0.000294098
1554.15	0.607391	8.04138e-05
1558.51	0.000146484	0.00231232
1562.85	0.607391	0.00027124
1567.17	0.607452	7.84607e-05
1571.53	0.000204468	0.00176239
1575.87	0.607422	0.000251495
1580.19	0.607391	7.69958e-05
1584.55	0.000222778	0.00137177
1588.89	0.607361	0.000233765
1593.21	0.607483	7.47375e-05
1597.57	0.000259399	0.00106293
1601.91	0.607391	0.000218628
1606.23	0.607452	7.26624e-05
1610.61	0.606293	0.0193054
1614.93	0.607452	0.000205688
1619.25	0.607391	7.10144e-05
1623.63	0.606537	0.0165283
1627.95	0.607422	0.000192108
1632.27	0.607452	6.94275e-05
1636.65	0.606781	0.0132904
1640.97	0.607391	0.000182068
1645.29	0.607513	6.73523e-05
1649.67	0.6073	0.00671387
1653.99	0.607452	0.000171112
1658.31	0.607422	6.56738e-05
1662.69	0.607361	0.00275452
1667.01	0.607422	0.000161407
1671.33	0.607452	6.40869e-05
1675.71	0.607391	0.00181244
1680.03	0.607391	0.000154633
1684.35	0.607422	6.21948e-05
1688.73	0.607361	0.00135529
1693.05	0.607452	0.000147614
1697.37	0.607452	6.14014e-05
1701.75	0.607391	0.00107819
1706.07	0.607483	0.000140686
1710.39	0.607452	6.04858e-05
1714.77	0.607361	0.000890198
1719.09	0.607422	0.000135132
1723.41	0.607391	5.93262e-05
1727.79	0.607391	0.000755005
1732.11	0.607452	0.00012915
1736.43	0.607452	5.7373e-05
1740.81	0.607391	0.000652466
1745.13	0.607422	0.000122833
1749.45	0.607422	5.70068e-05
1753.83	0.607361	0.000571594
1758.15	0.607422	0.00011792
1762.47	0.607452	5.51758e-05
1766.85	0.607361	0.000507202
1771.17	0.607452	0.000113586
1775.51	-0.697723	-0.027243
1779.87	0.607483	0.000448486
1784.19	0.607422	0.000108887
1788.53	-0.697815	-0.0250549
1792.89	0.607452	0.000405609
1797.21	0.607452	0.000105286
1801.55	-0.697906	-0.0237488
1805.91	0.607422	0.000369629
1810.23	0.607422	0.000101624
1814.57	-0.697998	-0.0226746
1818.93	0.607391	0.000339355
1823.25	0.607483	9.82056e-05
1827.61	0.000158691	0.00206757
1831.95	0.607422	0.000314148
1836.27	0.607452	9.58557e-05
1840.63	0.00022583	0.0015683
1844.97	0.607422	0.000289185
1849.29	0.607483	9.35364e-05
1853.65	0.000210571	0.00121155
1857.99	0.607422	0.000269928
1862.31	0.607452	8.9386e-05
1866.67	0.000234985	0.000937805
1871.01	0.607452	0.000251282
1875.33	0.607422	8.7616e-05
1879.71	0.606354	0.0192413
1884.03	0.607452	0.000236816
1888.35	0.607422	8.53271e-05
1892.73	0.606537	0.0165955
1897.05	0.607422	0.000220703
1901.37	0.607391	8.26721e-05
1905.75	0.60675	0.0134888
1910.07	0.607513	0.000209686
1914.39	0.607452	8.05969e-05
1918.77	0.607208	0.00745544
1923.09	0.607422	0.00019754
1927.41	0.607452	7.76978e-05
1931.79	0.6073	0.0029364
1936.11	0.607452	0.0001875
1940.43	0.607452	7.72095e-05
1944.81	0.607361	0.00194611
1949.13	0.607452	0.000178009
1953.45	0.607422	7.41882e-05
1957.83	0.607391	0.00146545
1962.15	0.607422	0.000169403
1966.47	0.607452	7.35168e-05
1970.85	0.607391	0.00117035
1975.17	0.607452	0.000161102
1979.49	0.607422	6.99768e-05
1983.87	0.60733	0.000967712
1988.19	0.607483	0.000154144
1992.51	0.607452	6.84509e-05
1996.89	0.60733	0.000821533
2001.21	0.607513	0.00014743
2005.53	0.607452	6.77185e-05
2009.91	0.607361	0.00071106
2014.23	0.607422	0.000142151
2018.55	0.607452	6.53076e-05
2022.93	0.60733	0.000621948
2027.25	0.607452	0.000135559
2031.57	0.607452	6.46057e-05
2035.95	0.607269	0.000555115
2040.27	0.607422	0.000130829
2044.61	-0.697723	-0.0271423
2048.97	0.607361	0.000498962
2053.29	0.607391	0.000125702
2057.63	-0.697845	-0.0249939
2061.99	0.607452	0.000450378
2066.31	0.607422	0.000121216
2070.65	-0.697906	-0.0237366
2075.01	0.607452	0.000411285
2079.33	0.607452	0.000116882
2083.67	-0.698029	-0.0227631
2088.03	0.607422	0.000377258
2092.35	0.607452	0.000112854
2096.71	0.000161743	0.00188904
2101.05	0.607452	0.000348206
2105.37	0.607483	0.000108551
2109.73	0.000213623	0.00142334
2114.07	0.607452	0.000322296
2118.39	0.607422	0.000105469
2122.75	0.000247192	0.00110016
2127.09	0.607452	0.000300293
2131.41	0.607452	0.000103058
2135.77	0.000241089	0.000851746
2140.11	0.607483	0.000280579
2144.43	0.607391	9.93042e-05
2148.81	0.606323	0.0191803
2153.13	0.607391	0.000263031
2157.45	0.607452	9.56421e-05
2161.83	0.606537	0.0165741
2166.15	0.607452	0.000247253
2170.47	0.607483	9.30176e-05
2174.85	0.606781	0.0135345
2179.17	0.607391	0.000232635
2183.49	0.607452	9.06372e-05
2187.87	0.607178	0.00785522
2192.19	0.607452	0.000220703
2196.51	0.607422	8.8501e-05
2200.89	0.60733	0.00306763
2205.21	0.607483	0.000208405
2209.53	0.607391	8.56628e-05
2213.91	0.60733	0.00204437
2218.23	0.607452	0.000197388
2222.55	0.607391	8.30994e-05
2226.93	0.60733	0.00154877
2231.25	0.607452	0.000189514
2235.57	0.607422	8.19702e-05
2239.95	0.607391	0.00124786
2244.27	0.607422	0.000180115
2248.59	0.607452	7.95593e-05
2252.97	0.60733	0.00103851
2257.29	0.607391	0.000171967
2261.61	0.607422	7.70874e-05
2265.99	0.607391	0.00088562
2270.31	0.607422	0.000164459
2274.63	0.607483	7.58667e-05
2279.01	0.607391	0.000769958
2283.33	0.607422	0.000157318
2287.65	0.607422	7.34253e-05
2292.03	0.607391	0.000677795
2296.35	0.607452	0.000151398
2300.67	0.607391	7.21741e-05
2305.05	0.607391	0.000604248
2309.37	0.607422	0.000144867
2313.71	-0.697723	-0.0272217
2318.07	0.607452	0.000543213
2322.39	0.607483	0.000140533
2326.73	-0.697876	-0.0250641
2331.09	0.607452	0.000490112
2335.41	0.607452	0.000134979
2339.75	-0.697937	-0.0238129
2344.11	0.607483	0.000447906
2348.43	0.607391	0.00012915
2352.77	-0.697968	-0.0228821
2357.13	0.607422	0.000410889
2361.45	0.607422	0.00012381
2365.81	0.000167847	0.00170349
2370.15	0.607483	0.00037793
2374.47	0.607422	0.000119965
2378.83	0.000222778	0.00127075
2383.17	0.607391	0.000349579
2387.49	0.607361	0.000115692
2391.85	0.000241089	0.000984802
2396.19	0.607452	0.000325439
2400.51	0.607361	0.000112091
2404.87	0.000247192	0.000766602
2409.21	0.607422	0.00030426
2413.53	0.607391	0.000109955
2417.91	0.606354	0.0191437
2422.23	0.607422	0.000285553
2426.55	0.607422	0.000106354
2430.93	0.606567	0.0165833
2435.25	0.607452	0.000269684
2439.57	0.607422	0.000103058
2443.95	0.606781	0.0136292
2448.27	0.607391	0.000254242
2452.59	0.607452	0.000100891
2456.97	0.607117	0.00834351
2461.29	0.607391	0.000239807
2465.61	0.607483	9.82361e-05
2469.99	0.607361	0.00319397
2474.31	0.607422	0.000226654
2478.63	0.607483	9.60999e-05
2483.01	0.607391	0.00213165
2487.33	0.607422	0.000216125
2491.65	0.607422	9.23157e-05
2496.03	0.60733	0.00162079
2500.35	0.607452	0.000204681
2504.67	0.607422	9.00269e-05
2509.05	0.607391	0.00130768
2513.37	0.607422	0.00019519
2517.69	0.607422	8.77991e-05
2522.07	0.607391	0.00109344
2526.39	0.607361	0.000185211
2530.71	0.607452	8.57849e-05
2535.09	0.607422	0.000935059
2539.41	0.607452	0.000177795
2543.73	0.607452	8.43506e-05
2548.11	0.607391	0.000812378
2552.43	0.607422	0.000170441
2556.75	0.607422	8.20923e-05
2561.13	0.607361	0.000717468
2565.45	0.607422	0.000163696
2569.77	0.607422	8.00476e-05
2574.15	0.607391	0.000641174
2578.47	0.607422	0.000157959
2582.81	-0.697693	-0.0272095
2587.17	0.607391	0.000576782
2591.49	0.607391	0.000151642
2595.83	-0.697845	-0.0250488
2600.19	0.607391	0.000523682
2604.51	0.607391	0.000145874
2608.85	-0.697937	-0.0238159
2613.21	0.607452	0.000476532
2617.53	0.607422	0.000141235
2621.87	-0.697937	-0.0229095
2626.23	0.607391	0.000436401
2630.55	0.607391	0.000136993
2634.91	0.000167847	0.00159821
2639.25	0.607452	0.00040329
2643.57	0.607422	0.000131622
2647.93	0.000247192	0.00117798
2652.27	0.607483	0.00037381
2656.59	0.607483	0.00012738
2660.95	0.000231934	0.000901794
2665.29	0.607391	0.000347839
2669.61	0.607391	0.000122437
2673.97	0.000234985	0.000697021
2678.31	0.607422	0.000324524
2682.63	0.607452	0.000119415
2687.01	0.606293	0.0190704
2691.33	0.607422	0.000304626
2695.65	0.607361	0.000115723
2700.03	0.606537	0.0165466
2704.35	0.607422	0.000286835
2708.67	0.607422	0.000111938
2713.05	0.606781	0.0136261
2717.37	0.607422	0.00027124
2721.69	0.607452	0.000110077
2726.07	0.607117	0.00847473
2730.39	0.607422	0.000255554
2734.71	0.607422	0.000106628
2739.09	0.607361	0.00325684
2743.41	0.607452	0.000242554
2747.73	0.607452	0.000103912
2752.11	0.60733	0.00218719
2756.43	0.607513	0.000230621
2760.75	0.607452	0.000101227
2765.13	0.607391	0.00167328
2769.45	0.607452	0.000220398
2773.77	0.607422	9.88464e-05
2778.15	0.6073	0.00135651
2782.47	0.607422	0.000208801
2786.79	0.607452	9.59473e-05
2791.17	0.607361	0.00113739
2795.49	0.607422	0.000200592
2799.81	0.607452	9.31702e-05
2804.19	0.607391	0.000960388
2806.37	0.607422	8.40759e-05