Folder: electrochromicfilms/Edgar/20240417/20240417/electrodeposition_pulsed_potential_B/data (part 2)

File: pulses_2000_to_3000.txt
Time (s)	WE(1).Potential (V)	WE(1).Current (A)
2831.06	-0.697662	-0.02724
2835.42	0.607391	0.000528564
2839.74	0.607391	0.000151215
2844.08	-0.697784	-0.0250824
2848.44	0.607361	0.000531006
2852.76	0.607422	0.00015274
2857.1	-0.697937	-0.0238373
2861.46	0.607513	0.000491882
2865.78	0.607422	0.000149139
2870.12	-0.697968	-0.0229645
2874.48	0.607452	0.000453552
2878.8	0.607391	0.000144501
2883.16	0.000167847	0.00150726
2887.5	0.607483	0.000421173
2891.82	0.607452	0.000139557
2896.18	0.000198364	0.00110748
2900.52	0.607452	0.000391693
2904.84	0.607422	0.000135742
2909.2	0.000234985	0.00085144
2913.54	0.607452	0.000364288
2917.86	0.607422	0.000131073
2922.22	0.000247192	0.000657959
2926.56	0.607422	0.000340149
2930.88	0.607452	0.000126099
2935.26	0.606323	0.0190491
2939.58	0.607422	0.000318787
2943.9	0.607391	0.000122925
2948.28	0.606537	0.0165344
2952.6	0.607391	0.000300262
2956.92	0.607391	0.000118225
2961.3	0.60675	0.0136383
2965.62	0.607483	0.000283813
2969.94	0.607422	0.000115326
2974.32	0.607147	0.00861816
2978.64	0.607422	0.000267365
2982.96	0.607452	0.000112274
2987.34	0.607361	0.00330383
2991.66	0.607391	0.000253448
2995.98	0.607544	0.000104492
3000.36	0.607422	0.00216675
3004.68	0.607452	0.000235657
3009	0.607422	0.000102936
3013.38	0.607361	0.00169189
3017.7	0.607391	0.000227722
3022.02	0.607452	0.000102661
3026.4	0.607422	0.00138428
3030.72	0.607422	0.00021875
3035.04	0.607483	0.000101196
3039.42	0.607361	0.00116577
3043.74	0.607452	0.000208527
3048.06	0.607422	9.76257e-05
3052.44	0.607361	0.00100189
3056.76	0.607452	0.000200317
3061.08	0.607452	9.49707e-05
3065.46	0.6073	0.000874939
3069.78	0.607452	0.0001922
3074.1	0.607513	9.31702e-05
3078.48	0.607361	0.000774841
3082.8	0.607422	0.000184448
3087.12	0.607422	9.07593e-05
3091.5	0.60733	0.000691833
3095.82	0.607422	0.000177429
3100.16	-0.697693	-0.02724
3104.52	0.607361	0.000624695
3108.84	0.607452	0.000170105
3113.18	-0.697845	-0.0250763
3117.54	0.607361	0.000567627
3121.86	0.607422	0.000164093
3126.2	-0.697968	-0.0238739
3130.56	0.607422	0.00052002
3134.88	0.607391	0.000158447
3139.22	-0.697968	-0.0230103
3143.58	0.607391	0.000476135
3147.9	0.607452	0.000152496
3152.26	0.00015564	0.00147308
3156.6	0.607452	0.000440735
3160.92	0.607391	0.000146667
3165.28	0.000234985	0.00106873
3169.62	0.607422	0.000408386
3173.94	0.607391	0.000141907
3178.3	0.00022583	0.000816956
3182.64	0.607452	0.000381836
3186.96	0.607422	0.000138062
3191.32	0.000250244	0.000631409
3195.66	0.607422	0.000356384
3199.98	0.607483	0.000134216
3204.36	0.606354	0.0190613
3208.68	0.607452	0.000334198
3213	0.607422	0.000129486
3217.38	0.606598	0.0165924
3221.7	0.607452	0.000313995
3226.02	0.607452	0.000125763
3230.4	0.60675	0.0137512
3234.72	0.607452	0.0002966
3239.04	0.607483	0.000122284
3243.42	0.607147	0.0090271
3247.74	0.607391	0.00028067
3252.06	0.607483	0.000118561
3256.44	0.60733	0.00339905
3260.76	0.607422	0.000266205
3265.08	0.607422	0.000115448
3269.46	0.607361	0.00228058
3273.78	0.607452	0.000253082
3278.1	0.607452	0.000112946
3282.48	0.60733	0.00175201
3286.8	0.607452	0.000240845
3291.12	0.607452	0.000109283
3295.5	0.60733	0.00142181
3299.82	0.607422	0.000228882
3304.14	0.607452	0.00010672
3308.52	0.607361	0.00119476
3312.84	0.607452	0.00021991
3317.16	0.607391	0.000104034
3321.54	0.6073	0.00102722
3325.86	0.607452	0.000209686
3330.18	0.607361	0.000101044
3334.56	0.607361	0.000897522
3338.88	0.607452	0.000200958
3343.2	0.607483	9.95789e-05
3347.58	0.60733	0.000795593
3351.9	0.607391	0.00019278
3356.22	0.607422	9.82361e-05
3360.6	0.607391	0.00071167
3364.92	0.607452	0.000185577
3369.26	-0.697693	-0.0272491
3373.62	0.60733	0.0006427
3377.94	0.607422	0.000177856
3382.28	-0.697815	-0.0250946
3386.64	0.607361	0.000585022
3390.96	0.607422	0.000171326
3395.3	-0.697906	-0.0238831
3399.66	0.60733	0.000535583
3403.98	0.607422	0.000165314
3408.32	-0.697968	-0.0230225
3412.68	0.607452	0.000491669
3417	0.607422	0.000160339
3421.36	0.000164795	0.00142975
3425.7	0.607391	0.000454895
3430.02	0.607483	0.000154846
3434.38	0.000231934	0.00101898
3438.72	0.607422	0.000424103
3443.04	0.607361	0.000149841
3447.4	0.000247192	0.000771179
3451.74	0.607391	0.000394379
3456.06	0.607422	0.000144928
3460.42	0.000238037	0.000596008
3464.76	0.607391	0.000369537
3469.08	0.607422	0.000140503
3473.46	0.606323	0.0190247
3477.78	0.607422	0.000346344
3482.1	0.607452	0.000136597
3486.48	0.606537	0.0165527
3490.8	0.607391	0.000325775
3495.12	0.607452	0.000133728
3499.5	0.60672	0.0137207
3503.82	0.607361	0.000309052
3508.14	0.607422	0.000129974
3512.52	0.607117	0.00904541
3516.84	0.607422	0.000292084
3521.16	0.607452	0.000125397
3525.54	0.60733	0.00342957
3529.86	0.607452	0.000277252
3534.18	0.607544	0.000121979
3538.56	0.6073	0.00230804
3542.88	0.607422	0.00026355
3547.2	0.607452	0.000119049
3551.58	0.607361	0.00177856
3555.9	0.607452	0.000250977
3560.22	0.607422	0.000115753
3564.6	0.607391	0.00144958
3568.92	0.607422	0.000239044
3573.24	0.607483	0.000112061
3577.62	0.607361	0.0012207
3581.94	0.607483	0.000229095
3586.26	0.607452	0.000110352
3590.64	0.60733	0.0010498
3594.96	0.607391	0.000218842
3599.28	0.607452	0.000107178
3603.66	0.607361	0.000918579
3607.98	0.607422	0.000210297
3612.3	0.607422	0.000104248
3616.68	0.6073	0.000814514
3621	0.607422	0.000201324
3625.32	0.607452	0.000102051
3629.7	0.60733	0.000729675
3634.02	0.607422	0.000193665
3638.36	-0.697693	-0.0272308
3642.72	0.60733	0.00065979
3647.04	0.607452	0.000186829
3651.38	-0.697815	-0.0250763
3655.75	0.607391	0.000601501
3660.07	0.607391	0.000179749
3664.41	-0.697906	-0.023877
3668.77	0.607391	0.000550842
3673.09	0.607452	0.000172882
3677.43	-0.698029	-0.0230194
3681.79	0.607391	0.0005078125
3686.11	0.607391	0.000167511
3690.47	0.000158691	0.00138824
3694.81	0.607391	0.000469177
3699.13	0.607452	0.000162292
3703.49	0.000228882	0.000986938
3707.83	0.607422	0.000436005
3712.15	0.607391	0.000156189
3716.51	0.000238037	0.000751038
3720.85	0.607452	0.000406982
3725.17	0.607513	0.000152008
3729.53	0.000247192	0.000578918
3733.87	0.607452	0.000381989
3738.19	0.607391	0.000147766
3742.57	0.606323	0.0190216
3746.89	0.607391	0.000358856
3751.21	0.607361	0.0001427
3755.59	0.606476	0.0165771
3759.91	0.607452	0.000338531
3764.23	0.607452	0.000138641
3768.61	0.60672	0.0138031
3772.93	0.607422	0.000318573
3777.25	0.607422	0.000134491
3781.63	0.607025	0.00930481
3785.95	0.607361	0.000303253
3790.27	0.607391	0.000130646
3794.65	0.6073	0.00349884
3798.97	0.607483	0.000287689
3803.29	0.607391	0.000126129
3807.67	0.6073	0.00234436
3811.99	0.607483	0.000274353
3816.31	0.607452	0.000123657
3820.69	0.607361	0.00180908
3825.01	0.607422	0.000259857
3829.33	0.607483	0.000119873
3833.71	0.607361	0.00147705
3838.03	0.607422	0.000249481
3842.35	0.607422	0.000116425
3846.73	0.607391	0.00124695
3851.05	0.607452	0.000237793
3855.37	0.607422	0.000115204
3859.75	0.607391	0.00107544
3864.07	0.607483	0.000227966
3868.39	0.607452	0.000111206
3872.77	0.60733	0.000942078
3877.09	0.607391	0.000217896
3881.41	0.607422	0.000108551
3885.79	0.607391	0.000835876
3890.11	0.607422	0.000209808
3894.43	0.607422	0.000105865
3898.81	0.607391	0.000750122
3903.13	0.607422	0.000202179
3907.47	-0.697693	-0.0272339
3911.83	0.60733	0.000678711
3916.15	0.607422	0.000194458
3920.49	-0.697784	-0.0250854
3924.85	0.607391	0.000619812
3929.17	0.607452	0.000187744
3933.51	-0.697906	-0.0238739
3937.87	0.607361	0.000567932
3942.19	0.607391	0.000180084
3946.53	-0.698029	-0.0230194
3950.89	0.607391	0.000522766
3955.21	0.607483	0.00017334
3959.57	0.000170898	0.00138123
3963.91	0.607422	0.000481537
3968.23	0.607422	0.000165741
3972.59	0.000216675	0.000948792
3976.93	0.607422	0.000444275
3981.25	0.607452	0.000160797
3985.61	0.000250244	0.000721741
3989.95	0.607422	0.000417358
3994.27	0.607422	0.000156677
3998.63	0.000259399	0.000559998
4002.97	0.607483	0.000391998
4007.29	0.607452	0.000151459
4011.67	0.606384	0.0190186
4015.99	0.607422	0.000368347
4020.31	0.607391	0.000147736
4024.69	0.606537	0.0165924
4029.01	0.607391	0.000347015
4033.33	0.607452	0.000142334
4037.71	0.606689	0.0138275
4042.03	0.607452	0.000328522
4046.35	0.607513	0.000138611
4050.73	0.607025	0.00943604
4055.05	0.607422	0.000311218
4059.37	0.607452	0.000134186
4063.75	0.607361	0.0035376
4068.07	0.607422	0.000294342
4072.39	0.607422	0.000130981
4076.77	0.607361	0.00236938
4081.09	0.607422	0.00028064
4085.41	0.607483	0.000127686
4089.79	0.60733	0.00183105
4094.11	0.607422	0.000266815
4098.43	0.607422	0.000124481
4102.81	0.6073	0.00149475
4107.13	0.607452	0.000255432
4111.45	0.607452	0.000122131
4115.83	0.607391	0.00126129
4120.15	0.607422	0.000243774
4124.47	0.607422	0.000117859
4128.85	0.607391	0.00109009
4131.03	0.607422	0.000108917