Folder: electrochromicfilms/Edgar/20240508/20240508/electrodeposition_pulsed_potential_20240508_B/data

File: OCP_1
Time (s)	WE(1).Potential (V)
2.01722	0.53833
3.01722	0.53894
4.01722	0.539246
5.01722	0.539551
6.01722	0.540161
7.01722	0.540466
8.01722	0.540771
9.01722	0.541077
10.0172	0.541687
11.0172	0.541992
12.0172	0.542297
13.0172	0.542908
14.0172	0.543213
15.0172	0.543518
16.0172	0.544128
17.0172	0.544128
18.0172	0.544739
19.0172	0.545044
20.0172	0.545654
21.0172	0.545959
22.0172	0.546265
23.0172	0.54657
24.0172	0.546875
25.0172	0.54718
26.0172	0.547485
27.0172	0.548096
28.0172	0.548401
29.0172	0.548706
30.0172	0.549011
31.0172	0.549316
32.0172	0.549927
33.0172	0.550232
34.0172	0.550232
35.0172	0.550537
36.0172	0.551147
37.0172	0.551453
38.0172	0.552063
39.0172	0.552368
40.0172	0.552673
41.0172	0.552979
42.0172	0.553284
43.0172	0.553589
44.0172	0.554199
45.0172	0.554504
46.0172	0.555115
47.0172	0.55542
48.0172	0.555725
49.0172	0.55603
50.0172	0.556335
51.0172	0.556641
52.0172	0.556946
53.0172	0.557251
54.0172	0.557556
55.0172	0.558167
56.0172	0.558472
57.0172	0.558777
58.0172	0.559082
59.0172	0.559387
60.0172	0.559692
61.0172	0.559998
62.0172	0.560303
63.0172	0.560608
64.0172	0.560913
65.0172	0.561218
66.0172	0.561523
67.0172	0.561523
68.0172	0.561829
69.0172	0.562439
70.0172	0.562439
71.0172	0.563049
72.0172	0.563049
73.0172	0.563354
74.0172	0.563354
75.0172	0.56366
76.0172	0.563965
77.0172	0.563965
78.0172	0.56427
79.0172	0.564575
80.0172	0.564575
81.0172	0.56488
82.0172	0.565186
83.0172	0.565491
84.0172	0.565491
85.0172	0.565796
86.0172	0.565796
87.0172	0.565796
88.0172	0.566101
89.0172	0.566406
90.0172	0.566406
91.0172	0.566711
92.0172	0.566711
93.0172	0.567017
94.0172	0.567017
95.0172	0.567322
96.0172	0.567322
97.0172	0.567627
98.0172	0.567932
99.0172	0.567932
100.017	0.568237
101.017	0.568237
102.017	0.568237
103.017	0.568542
104.017	0.568848
105.017	0.568848
106.017	0.569153
107.017	0.569153
108.017	0.569458
109.017	0.569458
110.017	0.569763
111.017	0.570068
112.017	0.570068
113.017	0.570374
114.017	0.570374
115.017	0.570679
116.017	0.570679
117.017	0.570984
118.017	0.570984
119.017	0.571289
120.017	0.571289
121.017	0.571289
122.017	0.571594
123.017	0.571594
124.017	0.571899
125.017	0.571899
126.017	0.572205
127.017	0.572205
128.017	0.57251
129.017	0.57251
130.017	0.572815
131.017	0.572815
132.017	0.57312
133.017	0.57312
134.017	0.573425
135.017	0.573425
136.017	0.57373
137.017	0.57373
138.017	0.574036
139.017	0.574036
140.017	0.574341
141.017	0.574646
142.017	0.574646
143.017	0.574951
144.017	0.574951
145.017	0.575256
146.017	0.575256
147.017	0.575562
148.017	0.575562
149.017	0.575867
150.017	0.575867
151.017	0.575867
152.017	0.576172
153.017	0.576172
154.017	0.576477
155.017	0.576477
156.017	0.576782
157.017	0.576782
158.017	0.576782
159.017	0.577087
160.017	0.577087
161.017	0.577087
162.017	0.577393
163.017	0.577393
164.017	0.577698
165.017	0.577698
166.017	0.578003
167.017	0.578003
168.017	0.578003
169.017	0.578308
170.017	0.578308
171.017	0.578613
172.017	0.578613
173.017	0.578613
174.017	0.578918
175.017	0.578918
176.017	0.579224
177.017	0.579224
178.017	0.579529
179.017	0.579529
180.017	0.579529
181.017	0.579834

File: OCP_3
Time (s)	WE(1).Potential (V)
5479.88	0.57373
5480.88	0.567627
5481.88	0.561523
5482.88	0.55603
5483.88	0.550842
5484.88	0.546265
5485.88	0.541687
5486.88	0.537415
5487.88	0.533447
5488.88	0.529785
5489.88	0.526123
5490.88	0.522766
5491.88	0.519714
5492.88	0.516968
5493.88	0.514221
5494.88	0.51178
5495.88	0.509338
5496.88	0.507202
5497.88	0.505066
5498.88	0.503235
5499.88	0.501404
5500.88	0.499878
5501.88	0.497955
5502.88	0.49646
5503.88	0.495056
5504.88	0.493774
5505.88	0.492554
5506.88	0.491272
5507.88	0.490204
5508.88	0.489197
5509.88	0.488373
5510.88	0.487579
5511.88	0.486847
5512.88	0.486176
5513.88	0.485535
5514.88	0.484985
5515.88	0.484436
5516.88	0.483917
5517.88	0.483459
5518.88	0.483002
5519.88	0.482605
5520.88	0.482269
5521.88	0.481903
5522.88	0.481628
5523.88	0.481323
5524.88	0.481079
5525.88	0.480835
5526.88	0.480621
5527.88	0.480438
5528.88	0.480255
5529.88	0.480072
5530.88	0.479919
5531.88	0.479767
5532.88	0.479645
5533.88	0.479523
5534.88	0.479431
5535.88	0.47937
5536.88	0.479309
5537.88	0.479218
5538.88	0.479156
5539.88	0.479126
5540.88	0.479095
5541.88	0.479034
5542.88	0.479034
5543.88	0.479004
5544.88	0.479004
5545.88	0.478973
5546.88	0.478943
5547.88	0.478943
5548.88	0.478943
5549.88	0.478943
5550.88	0.478973
5551.88	0.479004
5552.88	0.478973
5553.88	0.479004
5554.88	0.478973
5555.88	0.478943
5556.88	0.478973
5557.88	0.479095
5558.88	0.479248
5559.88	0.479401
5560.88	0.479523
5561.88	0.479706
5562.88	0.479767
5563.88	0.479767
5564.88	0.479767
5565.88	0.479767
5566.88	0.479828
5567.88	0.479858
5568.88	0.479828
5569.88	0.479797
5570.88	0.479828
5571.88	0.479858
5572.88	0.479889
5573.88	0.479858
5574.88	0.479828
5575.88	0.479858
5576.88	0.479889
5577.88	0.479858
5578.88	0.479858
5579.88	0.479889
5580.88	0.47995
5581.88	0.47998
5582.88	0.480042
5583.88	0.480103
5584.88	0.480133
5585.88	0.480164
5586.88	0.480194
5587.88	0.480194
5588.88	0.480286
5589.88	0.480621
5590.88	0.480957
5591.88	0.480896
5592.88	0.480896
5593.88	0.480865
5594.88	0.480835
5595.88	0.480835
5596.88	0.480835
5597.88	0.480835
5598.88	0.480835
5599.88	0.480835
5600.88	0.480835
5601.88	0.480896
5602.88	0.480927
5603.88	0.480957
5604.88	0.481018
5605.88	0.481049
5606.88	0.481079
5607.88	0.481171
5608.88	0.481201
5609.88	0.481232
5610.88	0.481232
5611.88	0.481262
5612.88	0.481293
5613.88	0.481262
5614.88	0.481293
5615.88	0.481262
5616.88	0.481293
5617.88	0.481354
5618.88	0.481384
5619.88	0.481415
5620.88	0.481506
5621.88	0.481537
5622.88	0.481567
5623.88	0.481567
5624.88	0.481598
5625.88	0.481628
5626.88	0.481628
5627.88	0.481628
5628.88	0.481659
5629.88	0.48172
5630.88	0.481812
5631.88	0.481964
5632.88	0.482086
5633.88	0.482208
5634.88	0.48233
5635.88	0.482452
5636.88	0.482483
5637.88	0.482483
5638.88	0.482452
5639.88	0.482483
5640.88	0.482483
5641.88	0.482513
5642.88	0.482544
5643.88	0.482574
5644.88	0.482574
5645.88	0.482605
5646.88	0.482666
5647.88	0.482697
5648.88	0.482697
5649.88	0.482727
5650.88	0.482758
5651.88	0.482697
5652.88	0.482697
5653.88	0.482727
5654.88	0.482727
5655.88	0.482727
5656.88	0.482727
5657.88	0.482727
5658.88	0.482758

File: pulses_0_to_1000.txt
Time (s)	WE(1).Potential (V)	WE(1).Current (A)
181.93	-0.69873	-0.00482544
186.29	0.581299	-1.21765e-05
190.61	0.58075	-1.06201e-05
194.95	-0.697601	-0.00422424
199.31	0.580231	-2.80762e-06
203.63	0.580902	-1.21765e-05
207.97	-0.698151	-0.00433838
212.33	0.581268	-9.85718e-06
216.65	0.580627	-7.65991e-06
220.99	-0.697327	-0.00443665
225.35	0.580078	-2.68555e-06
229.67	0.580078	-6.56128e-06
234.03	0.000878906	0.00155487
238.37	0.580566	-7.32422e-06
242.69	0.580475	-8.78906e-06
247.05	0.00185547	0.000219269
251.39	0.579956	-1.80054e-06
255.71	0.58075	-1.0376e-05
260.07	0.00108032	5.3009e-05
264.41	0.581238	-1.35193e-05
268.73	0.580292	-9.21631e-06
273.09	0.00170593	-1.31226e-05
277.43	0.580353	-4.88281e-06
281.75	0.580902	-1.40991e-05
286.13	0.580505	8.59375E-05
290.45	0.580688	-1.00403e-05
294.77	0.5802	-9.27734e-06
299.15	0.579926	3.25623e-05
303.47	0.579987	-2.71606e-06
307.79	0.5802	-6.40869e-06
312.17	0.580017	1.67236e-05
316.49	0.581299	-1.41296e-05
320.81	0.580597	-9.67407e-06
325.19	0.581238	9.15527e-08
329.51	0.581268	-1.09863e-05
333.83	0.581085	-1.33057e-05
338.21	0.581146	-3.2959e-06
342.53	0.579956	-2.68555e-06
346.85	0.580048	-5.95093e-06
351.23	0.581299	-7.44629e-06
355.55	0.580627	-1.01624e-05
359.87	0.579926	-4.5166e-06
364.25	0.580292	-3.17383e-06
368.57	0.581024	-1.3092e-05
372.89	0.579895	-4.45557e-06
377.27	0.580261	-7.01904e-07
381.59	0.581085	-1.23596e-05
385.91	0.580048	-6.40869e-06
390.29	0.58078	-4.73022e-06
394.61	0.581268	-1.57776e-05
398.93	0.580414	-9.33838e-06
403.31	0.5802	-1.92261e-06
407.63	0.581207	-1.4679e-05
411.95	0.579865	-4.02832e-06
416.33	0.581146	-9.30786e-06
420.65	0.581268	-1.52893e-05
424.97	0.580048	-5.43213e-06
429.35	0.579895	-6.71387e-07
433.67	0.580688	-1.01929e-05
437.99	0.580994	-1.40991e-05
442.37	0.580231	-3.32642e-06
446.69	0.580963	-1.06812e-05
451.03	-0.698425	-0.00947266
455.39	0.580261	-6.22559e-06
459.71	0.580902	-1.07117e-05
464.05	-0.698212	-0.00646606
468.41	0.580597	-8.66699e-06
472.73	0.580353	-6.46973e-06
477.07	-0.698181	-0.00539886
481.43	0.580048	-4.88281e-06
485.75	0.579895	-3.41797e-06
490.09	-0.69751	-0.00490173
494.45	0.580658	-7.14111e-06
498.77	0.581329	-1.37024e-05
503.13	0.000732422	0.00726227
507.47	0.581177	-1.27869e-05
511.79	0.58136	-1.42212e-05
516.15	0.00202637	0.00199585
520.49	0.579834	-5.46265e-06
524.81	0.580627	-9.91821e-06
529.17	0.000653076	0.000398712
533.51	0.579803	-2.16675e-06
537.83	0.58075	-1.09253e-05
542.19	0.000695801	7.51648e-05
546.53	0.581238	-1.44958e-05
550.85	0.580444	-1.00403e-05
555.23	0.58078	9.86938e-05
559.55	0.579803	-2.50244e-06
563.87	0.580902	-1.22681e-05
568.25	0.580292	3.45154e-05
572.57	0.579834	-2.62451e-06
576.89	0.58136	-1.54419e-05
581.27	0.580383	1.29089e-05
585.59	0.580811	-1.19019e-05
589.91	0.581238	-1.39771e-05
594.29	0.580017	1.16577e-05
598.61	0.581177	-1.3092e-05
602.93	0.579803	-4.97437e-06
607.31	0.580444	3.87573e-06
611.63	0.58017	-4.82178e-06
615.95	0.579926	-8.30078e-06
620.33	0.580322	8.54492e-07
624.65	0.580811	-1.02539e-05
628.97	0.580261	-1.12305e-05
633.35	0.579895	3.2959e-06
637.67	0.580017	-3.84521e-06
641.99	0.580994	-1.26343e-05
646.37	0.580444	-1.98364e-06
650.69	0.58139	-1.43127e-05
655.01	0.579803	-4.63867e-06
659.39	0.581024	-7.2937e-06
663.71	0.579865	-2.56348e-06
668.03	0.580383	-9.12476e-06
672.41	0.579956	8.54492e-07
676.73	0.580505	-7.8125e-06
681.05	0.580933	-1.21765e-05
685.43	0.579834	-2.0752e-06
689.75	0.581055	-1.32446e-05
694.07	0.580505	-8.45337e-06
698.45	0.581238	-1.16577e-05
702.77	0.580841	-1.14441e-05
707.09	0.579895	-4.30298e-06
711.47	0.581238	-1.07117e-05
715.79	0.581177	-1.34583e-05
720.13	-0.698364	-0.0114899
724.49	0.581146	-1.04675e-05
728.81	0.580811	-8.45337e-06
733.15	-0.697174	-0.00763245
737.51	0.579773	-2.13623e-07
741.83	0.580109	-5.5542e-06
746.17	-0.698059	-0.00617523
750.53	0.580322	-3.9978e-06
754.85	0.581299	-1.58386e-05
759.19	-0.698517	-0.00547424
763.55	0.580597	-7.2937e-06
767.87	0.580566	-8.39233e-06
772.23	0.000784302	0.00881958
776.57	0.581238	-1.15051e-05
780.89	0.579895	-2.86865e-06
785.25	0.00193481	0.00374207
789.59	0.579895	-2.28882e-06
793.91	0.579987	-3.93677e-06
798.27	0.00160522	0.00118805
802.61	0.58017	-3.90625e-06
806.931	0.581329	-1.48315e-05
811.291	0.00134888	0.000329041
815.631	0.581329	-1.25732e-05
819.951	0.581329	-1.42517e-05
824.331	0.580841	0.000119812
828.651	0.581116	-1.21765e-05
832.971	0.579865	-2.47192e-06
837.351	0.580231	4.32739e-05
841.671	0.581177	-1.31226e-05
845.991	0.581177	-1.33057e-05
850.371	0.581055	1.75171e-05
854.691	0.581024	-1.19324e-05
859.011	0.580811	-1.23291e-05
863.391	0.579834	1.68762e-05
867.711	0.579987	-3.63159e-06
872.031	0.581207	-1.16882e-05
876.411	0.580017	1.12305e-05
880.731	0.58139	-1.51978e-05
885.051	0.580566	-9.06372e-06
889.431	0.580719	3.60107e-06
893.751	0.580078	-5.5542e-06
898.071	0.581207	-1.3855e-05
902.451	0.579803	8.45337e-06
906.771	0.581299	-1.26343e-05
911.091	0.581024	-1.37634e-05
915.471	0.581085	-3.9978e-06
919.791	0.581024	-1.12e-05
924.111	0.581055	-1.47095e-05
928.491	0.581116	-5.24902e-06
932.811	0.580322	-5.92041e-06
937.131	0.580414	-8.08716e-06
941.511	0.580261	-6.40869e-07
945.831	0.581207	-1.15662e-05
950.151	0.581085	-1.52588e-05
954.531	0.580963	-4.45557e-06
958.851	0.58075	-9.15527e-06
963.171	0.581024	-1.43127e-05
967.551	0.581299	-9.73511e-06
971.871	0.580719	-1.0437e-05
976.191	0.581299	-1.41296e-05
980.571	0.580902	-6.40869e-06
984.891	0.581116	-1.28174e-05
989.231	-0.698151	-0.01409
993.591	0.581177	-9.42993e-06
997.911	0.579956	-2.89917e-06
1002.25	-0.698273	-0.00933533
1006.61	0.579834	-1.5564e-06
1010.93	0.579926	-3.41797e-06
1015.27	-0.697388	-0.00736176
1019.63	0.581207	-1.16882e-05
1023.95	0.580383	-8.45337e-06
1028.29	-0.698517	-0.00638489
1032.65	0.581177	-1.05896e-05
1036.97	0.580505	-1.07117e-05
1041.33	0.000418091	0.0100006
1045.67	0.58075	-7.23267e-06
1049.99	0.580536	-8.45337e-06
1054.35	0.00203552	0.00534546
1058.69	0.579987	-1.40381e-06
1063.01	0.580444	-1.0376e-05
1067.37	0.00085144	0.00246124
1071.71	0.579926	-5.18799e-07
1076.03	0.580963	-1.171875E-05
1080.39	0.000784302	0.00100586
1084.73	0.580017	-2.16675e-06
1089.05	0.581116	-1.17493e-05
1093.43	0.579773	0.000186249
1097.75	0.580292	-4.94385e-06
1102.07	0.579865	-4.18091e-06
1106.45	0.580902	4.80347e-05
1110.77	0.580688	-7.01904e-06
1115.09	0.579865	-4.88281e-06
1119.47	0.580963	2.3468e-05
1123.79	0.579865	-5.27954e-06
1128.11	0.579926	-3.17383e-06
1132.49	0.579987	1.75781e-05
1136.81	0.579956	-2.16675e-06
1141.13	0.580139	-6.37817e-06
1145.51	0.580414	1.171875E-05
1149.83	0.579803	-2.7771e-06
1154.15	0.58075	-8.81958e-06
1158.53	0.580048	8.91113e-06
1162.85	0.580353	-5.7373e-06
1167.17	0.581177	-1.32751e-05
1171.55	0.580536	3.44849e-06
1175.87	0.580811	-9.06372e-06
1180.19	0.580048	-6.34766e-06
1184.57	0.579834	7.69043e-06
1188.89	0.581268	-1.37024e-05
1193.21	0.580292	-6.16455e-06
1197.59	0.580017	3.90625e-06
1201.91	0.580872	-1.15662e-05
1206.23	0.581207	-1.43738e-05
1210.61	0.579895	4.21143e-06
1214.93	0.581146	-1.29089e-05
1219.25	0.580566	-8.57544e-06
1223.63	0.580048	3.35693e-06
1227.95	0.5802	-5.46265e-06
1232.27	0.58075	-1.2085e-05
1236.65	0.581299	-7.93457e-06
1240.97	0.579926	-5.0354e-06
1245.29	0.581055	-1.2146e-05
1249.67	0.579742	2.56348e-06
1253.99	0.580139	-5.40161e-06
1258.33	-0.698151	-0.0165253
1262.69	0.579834	1.61743e-06
1267.01	0.579834	-3.50952e-06
1271.35	-0.697571	-0.0113342
1275.71	0.580658	-4.3335e-06
1280.03	0.581055	-9.91821e-06
1284.37	-0.698639	-0.00875244
1288.73	0.579834	5.49316e-07
1293.05	0.581024	-1.1322e-05
1297.39	-0.698517	-0.00740875
1301.75	0.581268	-9.82666e-06
1306.07	0.580292	-6.62231e-06
1310.43	0.00184631	0.0106506
1314.77	0.581207	-1.0437e-05
1319.09	0.579895	-2.19727e-06
1323.45	0.00177002	0.00645844
1327.79	0.580383	-4.05884e-06
1332.11	0.580322	-7.38525e-06
1336.47	0.00133362	0.00371765
1340.81	0.580139	-2.10571e-06
1345.13	0.580322	-5.21851e-06
1349.49	0.000830078	0.00192047
1353.83	0.579865	-8.23975e-07
1358.15	0.580933	-1.34277e-05
1362.53	0.580139	0.000516663
1366.85	0.580719	-7.08008e-06
1371.17	0.580841	-1.11694e-05
1375.55	0.581055	6.67419e-05
1379.87	0.580688	-6.65283e-06
1384.19	0.580963	-1.40686e-05
1388.57	0.580475	3.54919e-05
1392.89	0.579926	9.15527e-08
1397.21	0.580872	-1.20239e-05
1401.59	0.581268	1.60217e-05
1405.91	0.581116	-9.58252e-06
1410.23	0.580566	-9.85718e-06
1414.61	0.580048	1.68762e-05
1418.93	0.581055	-1.06506e-05
1423.25	0.58139	-1.474e-05
1427.63	0.581268	5.31006e-06
1431.95	0.581024	-1.20239e-05
1436.27	0.581268	-1.31226e-05
1440.65	0.580322	8.45337e-06
1444.97	0.579926	-2.41089e-06
1449.29	0.579895	-3.35693e-06
1453.67	0.581055	6.40869e-07
1457.99	0.581299	-1.52588e-05
1462.31	0.581268	-1.34277e-05
1466.69	0.579742	8.3313e-06
1471.01	0.580933	-1.02234e-05
1475.33	0.579834	-3.57056e-06
1479.71	0.58075	-4.27246e-07
1481.89	0.581268	-1.43433e-05

File: pulses_1000_to_2000.txt
Time (s)	WE(1).Potential (V)	WE(1).Current (A)
1506.43	-0.696747	-0.0182861
1510.79	0.579865	9.76562e-07
1515.11	0.580963	-1.04065e-05
1519.45	-0.698151	-0.0129089
1523.81	0.579834	8.54492e-07
1528.13	0.579865	-1.86157e-06
1532.47	-0.697968	-0.0099823
1536.83	0.580322	-3.08228e-06
1541.15	0.581329	-1.29089e-05
1545.49	-0.698517	-0.00834045
1549.85	0.580536	-2.99072e-06
1554.17	0.579926	-5.00488e-06
1558.53	0.000732422	0.0108063
1562.87	0.579895	-2.13623e-07
1567.19	0.579895	-2.19727e-06
1571.55	0.00194397	0.00699829
1575.89	0.579834	1.83105e-07
1580.21	0.580048	-6.16455e-06
1584.57	0.00187988	0.00443665
1588.91	0.581146	-8.8501e-06
1593.23	0.580933	-9.765625E-06
1597.59	0.00184021	0.00259949
1601.93	0.579987	-6.10352e-07
1606.25	0.58136	-1.42822e-05
1610.63	0.580963	0.00894165
1614.95	0.579834	3.05176e-08
1619.27	0.580231	-7.59888e-06
1623.65	0.579834	9.63135e-05
1627.97	0.580475	-6.46973e-06
1632.29	0.581055	-1.22375e-05
1636.67	0.579956	4.6936e-05
1640.99	0.579926	-1.31226e-06
1645.31	0.581238	-1.26038e-05
1649.69	0.579956	3.15552e-05
1654.01	0.580536	-5.37109e-06
1658.33	0.581024	-1.11084e-05
1662.71	0.581055	1.26038e-05
1667.03	0.581329	-1.35193e-05
1671.35	0.581177	-1.37024e-05
1675.73	0.579926	1.60828e-05
1680.05	0.579956	-3.60107e-06
1684.37	0.579773	-2.47192e-06
1688.75	0.580383	9.27734e-06
1693.07	0.579742	-2.53296e-06
1697.39	0.581238	-1.48621e-05
1701.77	0.580719	4.36401e-06
1706.09	0.581146	-1.11084e-05
1710.41	0.579987	-4.88281e-06
1714.79	0.580444	6.13403e-06
1719.11	0.580078	-3.54004e-06
1723.43	0.580566	-8.30078e-06
1727.81	0.58075	5.18799e-07
1732.13	0.580811	-6.56128e-06
1736.45	0.579895	-4.73022e-06
1740.83	0.579987	6.56128e-06
1745.15	0.581299	-1.15051e-05
1749.47	0.579926	-4.15039e-06
1753.85	0.581268	-6.01196e-06
1758.17	0.581207	-1.03149e-05
1762.49	0.580383	-9.06372e-06
1766.87	0.580597	-1.28174e-06
1771.19	0.579956	-2.59399e-06
1775.53	-0.696747	-0.0195648
1779.89	0.580353	-3.05176e-06
1784.21	0.580231	-7.20215e-06
1788.55	-0.697327	-0.0144623
1792.91	0.581299	-8.60596e-06
1797.23	0.58136	-1.37634e-05
1801.57	-0.697479	-0.0112793
1805.93	0.581146	-7.04956e-06
1810.25	0.581146	-1.06506e-05
1814.59	-0.698395	-0.00934448
1818.95	0.579987	3.44849e-06
1823.27	0.579834	-2.34985e-06
1827.63	0.00174866	0.0108093
1831.97	0.581177	-8.57544e-06
1836.29	0.579803	-1.2207e-06
1840.65	0.000552368	0.00739441
1844.99	0.580261	-3.78418e-06
1849.31	0.580536	-7.96509e-06
1853.67	0.0014679	0.00500763
1858.01	0.579742	3.05176e-08
1862.33	0.581268	-1.32751e-05
1866.69	0.00178833	0.00320984
1871.03	0.581024	-7.87354e-06
1875.35	0.580017	-6.68335e-06
1879.73	0.580017	0.0122955
1884.05	0.581146	-1.03149e-05
1888.37	0.581146	-1.33972e-05
1892.75	0.579956	0.000209381
1897.07	0.581177	-1.03149e-05
1901.39	0.579834	-2.56348e-06
1905.77	0.580933	5.18799e-05
1910.09	0.581024	-9.39941e-06
1914.41	0.581146	-1.37939e-05
1918.79	0.579803	3.67432e-05
1923.11	0.579865	-1.31226e-06
1927.43	0.579803	-2.7771e-06
1931.81	0.580048	2.4231e-05
1936.13	0.579926	-1.31226e-06
1940.45	0.580994	-1.36108e-05
1944.83	0.579803	2.01111e-05
1949.15	0.580322	-5.98145e-06
1953.47	0.581207	-1.34583e-05
1957.85	0.580444	9.52148e-06
1962.17	0.579987	-1.61743e-06
1966.49	0.579865	-2.92969e-06
1970.87	0.580017	1.24817e-05
1975.19	0.581268	-1.18408e-05
1979.51	0.581146	-1.10779e-05
1983.89	0.580566	5.52368e-06
1988.21	0.580688	-9.3689e-06
1992.53	0.579987	-4.15039e-06
1996.91	0.580963	9.15527e-08
2001.23	0.580627	-9.15527e-06
2005.55	0.579865	-4.69971e-06
2009.93	0.579895	5.49316e-06
2014.25	0.580719	-8.60596e-06
2018.57	0.581238	-1.23901e-05
2022.95	0.581268	-5.43213e-06
2027.27	0.579956	-3.38745e-06
2031.59	0.579956	-4.48608e-06
2035.97	0.579987	4.88281e-06
2040.29	0.580383	-8.23975e-06
2044.63	-0.697937	-0.020636
2048.99	0.581207	-5.64575e-06
2053.31	0.580566	-9.15527e-06
2057.65	-0.697113	-0.0156921
2062.01	0.5802	8.54492e-07
2066.33	0.579803	-2.34985e-06
2070.67	-0.697479	-0.012442
2075.03	0.579834	2.56348e-06
2079.35	0.580048	-4.79126e-06
2083.69	-0.698029	-0.0102905
2088.05	0.580811	-2.22778e-06
2092.37	0.580933	-9.91821e-06
2096.73	0.000650024	0.0105896
2101.07	0.579956	5.18799e-07
2105.39	0.579956	-2.89917e-06
2109.75	0.00106201	0.00748047
2114.09	0.579956	-3.05176e-07
2118.41	0.580933	-7.32422e-06
2122.77	0.00198059	0.00527161
2127.11	0.579987	-7.93457e-07
2131.43	0.581146	-1.23291e-05
2135.79	0.00072937	0.00358307
2140.13	0.581238	-1.13831e-05
2144.45	0.580139	-4.76074e-06
2148.83	0.580414	0.0137634
2153.15	0.581055	-1.08032e-05
2157.47	0.580078	-2.53296e-06
2161.85	0.580475	0.000791626
2166.17	0.581329	-9.58252e-06
2170.49	0.579834	-2.80762e-06
2174.87	0.581299	8.74634e-05
2179.19	0.580658	-7.53784e-06
2183.51	0.581116	-1.34277e-05
2187.89	0.580902	3.91235e-05
2192.21	0.580261	-4.36401e-06
2196.53	0.580841	-1.22375e-05
2200.91	0.581238	1.92871e-05
2205.23	0.58078	-6.83594e-06
2209.55	0.580322	-7.47681e-06
2213.93	0.579956	1.94092e-05
2218.25	0.581177	-9.30786e-06
2222.57	0.580627	-1.2085e-05
2226.95	0.580688	9.42993e-06
2231.27	0.580048	-8.23975e-07
2235.59	0.580444	-7.17163e-06
2239.97	0.580688	7.08008e-06
2244.29	0.579773	4.57764e-07
2248.61	0.580933	-1.2085e-05
2252.99	0.580994	1.83105e-06
2257.31	0.579803	-1.12915e-06
2261.63	0.579895	-3.72314e-06
2266.01	0.580933	-9.15527e-08
2270.33	0.579803	-1.77002e-06
2274.65	0.581329	-1.36108e-05
2279.03	0.58136	-3.17383e-06
2283.35	0.581238	-1.17798e-05
2287.67	0.579773	-3.84521e-06
2292.05	0.579773	6.56128e-06
2296.37	0.581024	-1.04675e-05
2300.69	0.579742	-2.44141e-06
2305.07	0.580078	1.70898e-06
2309.39	0.580963	-1.02234e-05
2313.73	-0.697632	-0.0213409
2318.09	0.580994	-4.08936e-06
2322.41	0.579773	-2.83813e-06
2326.75	-0.69809	-0.0165588
2331.11	0.581268	-5.79834e-06
2335.43	0.580017	-1.25122e-06
2339.77	-0.698334	-0.013327
2344.13	0.58017	9.76562e-07
2348.45	0.580597	-6.46973e-06
2352.79	-0.698517	-0.0110687
2357.15	0.580048	1.00708e-06
2361.47	0.581055	-1.3916e-05
2365.83	0.000961304	0.0103821
2370.17	0.579834	1.52588e-06
2374.49	0.579773	-2.13623e-06
2378.85	0.00135803	0.00752258
2383.19	0.580139	-1.0376e-06
2387.51	0.581146	-1.49536e-05
2391.87	0.00071106	0.00547058
2396.21	0.581055	-7.69043e-06
2400.53	0.581329	-1.38245e-05
2404.89	0.000839233	0.00386139
2409.23	0.580872	-6.56128e-06
2413.55	0.581268	-1.41602e-05
2417.93	0.579742	0.0147491
2422.25	0.580536	-3.8147e-06
2426.57	0.581116	-1.41907e-05
2430.95	0.581238	0.00302002
2435.27	0.581055	-8.88062e-06
2439.59	0.579956	-5.5542e-06
2443.97	0.580872	0.000215118
2448.29	0.579834	6.71387e-07
2452.61	0.581268	-1.32141e-05
2456.99	0.581238	5.56641e-05
2461.31	0.580719	-7.1106e-06
2465.63	0.58075	-1.2207e-05
2470.01	0.581238	2.50244e-05
2474.33	0.581116	-1.12915e-05
2478.65	0.580109	-3.78418e-06
2483.03	0.580933	1.87683e-05
2487.35	0.58075	-7.08008e-06
2491.67	0.579865	-2.68555e-06
2496.05	0.58139	8.94165e-06
2500.37	0.579834	-1.83105e-06
2504.69	0.579834	-3.26538e-06
2509.07	0.579895	1.57471e-05
2513.39	0.579895	-1.46484e-06
2517.71	0.581177	-1.26648e-05
2522.09	0.581238	2.62451e-06
2526.41	0.580109	-1.25122e-06
2530.73	0.579834	-2.99072e-06
2535.11	0.579865	1.01929e-05
2539.43	0.580292	-3.05176e-06
2543.75	0.58078	-8.54492e-06
2548.13	0.579956	7.1106e-06
2552.45	0.580353	-5.06592e-06
2556.77	0.580078	-5.0354e-06
2561.15	0.579865	6.83594e-06
2565.47	0.580811	-8.05664e-06
2569.79	0.581421	-1.41602e-05
2574.17	0.581268	-5.52368e-06
2578.49	0.580231	-5.15747e-06
2582.83	-0.697723	-0.0218933
2587.19	0.579895	3.35693e-06
2591.51	0.5802	-3.66211e-06
2595.85	-0.698029	-0.0172699
2600.21	0.580963	-3.63159e-06
2604.53	0.580353	-5.85937e-06
2608.87	-0.696686	-0.0140991
2613.23	0.580902	-3.66211e-06
2617.55	0.580841	-1.19019e-05
2621.89	-0.696991	-0.011795
2626.25	0.579895	2.16675e-06
2630.57	0.581177	-1.15967e-05
2634.93	0.000317383	0.0100677
2639.27	0.580933	-5.58472e-06
2643.59	0.580261	-5.58472e-06
2647.95	0.00158081	0.00741882
2652.29	0.580841	-6.5918e-06
2656.61	0.58078	-1.11694e-05
2660.97	0.00130615	0.00547302
2665.31	0.580719	-3.26538e-06
2669.63	0.580017	-3.87573e-06
2673.99	0.00106812	0.00394928
2678.33	0.581116	-8.3313e-06
2682.65	0.580322	-7.23267e-06
2687.03	0.579102	0.0153656
2691.35	0.579956	1.52588e-07
2695.67	0.580933	-1.36414e-05
2700.05	0.580719	0.00751953
2704.37	0.581116	-8.39233e-06
2708.69	0.581055	-1.16882e-05
2713.07	0.579895	0.000465363
2717.39	0.580627	-6.53076e-06
2721.71	0.581207	-1.26038e-05
2726.09	0.58078	0.000118652
2730.41	0.580719	-4.21143e-06
2734.73	0.580017	-4.39453e-06
2739.11	0.580688	4.776e-05
2743.43	0.579895	-1.06812e-06
2747.75	0.579956	-3.05176e-06
2752.13	0.581116	2.12402e-05
2756.45	0.581146	-1.09253e-05
2760.78	0.581329	-1.42822e-05
2765.16	0.581177	1.47705e-05
2769.48	0.581055	-9.82666e-06
2773.8	0.580658	-7.08008e-06
2778.18	0.581055	7.26318e-06
2782.5	0.580627	-6.68335e-06
2786.82	0.580078	-3.84521e-06
2791.2	0.580139	1.15662e-05
2795.52	0.579742	-2.10571e-06
2799.84	0.580292	-5.15747e-06
2804.22	0.581238	9.15527e-08
2806.4	0.581177	-1.07117e-05