Folder: electrochromicfilms/Edgar/20240508/20240508/electrodeposition_pulsed_potential_20240508_B/data (part 2)

File: pulses_2000_to_3000.txt
Time (s)	WE(1).Potential (V)	WE(1).Current (A)
2831.29	-0.697235	-0.0223206
2835.65	0.58136	-5.58472e-06
2839.97	0.579834	-1.31226e-06
2844.31	-0.697968	-0.0177277
2848.67	0.580109	4.45557e-06
2852.99	0.580841	-8.27026e-06
2857.33	-0.698242	-0.0146027
2861.69	0.580414	8.54492e-07
2866.01	0.58139	-1.19324e-05
2870.35	-0.696838	-0.0122742
2874.71	0.579865	3.72314e-06
2879.03	0.579803	-2.31934e-06
2883.39	0.0016571	0.00982971
2887.73	0.580414	-1.80054e-06
2892.05	0.581268	-1.25427e-05
2896.41	0.00112305	0.00731506
2900.75	0.580261	-7.01904e-07
2905.07	0.581238	-1.21765e-05
2909.43	0.000643921	0.00547821
2913.77	0.581207	-7.84302e-06
2918.09	0.581329	-1.22986e-05
2922.45	0.00202942	0.00399536
2926.79	0.579895	2.19727e-06
2931.11	0.581085	-1.16882e-05
2935.49	0.579651	0.0157471
2939.81	0.579712	2.0752e-06
2944.13	0.579926	-3.14331e-06
2948.51	0.579559	0.00915527
2952.83	0.580597	-5.52368e-06
2957.15	0.579865	-7.93457e-07
2961.53	0.581329	0.000740051
2965.85	0.580841	-6.53076e-06
2970.17	0.580841	-8.63647e-06
2974.55	0.579803	0.000207916
2978.87	0.580139	-2.56348e-06
2983.19	0.579956	-3.75366e-06
2987.57	0.581207	7.62329e-05
2991.89	0.581024	-8.30078e-06
2996.21	0.579956	-2.89917e-06
3000.59	0.580231	4.07715e-05
3004.91	0.581299	-1.11389e-05
3009.23	0.5802	-5.09644e-06
3013.61	0.581268	1.73035e-05
3017.93	0.580872	-9.67407e-06
3022.25	0.580811	-9.3689e-06
3026.63	0.579926	1.94092e-05
3030.95	0.580048	-1.86157e-06
3035.27	0.58017	-6.073e-06
3039.65	0.580902	6.5918e-06
3043.97	0.580017	-1.28174e-06
3048.29	0.581238	-1.22375e-05
3052.67	0.580353	8.57544e-06
3056.99	0.580078	-2.38037e-06
3061.31	0.580872	-1.11084e-05
3065.69	0.580414	5.76782e-06
3070.01	0.581238	-1.14441e-05
3074.33	0.580719	-9.24683e-06
3078.71	0.580536	2.2583e-06
3083.03	0.580811	-7.04956e-06
3087.35	0.580872	-1.05591e-05
3091.73	0.579773	5.43213e-06
3096.05	0.580048	-4.63867e-06
3100.39	-0.697021	-0.022525
3104.75	0.5802	1.7395e-06
3109.07	0.579834	-1.80054e-06
3113.41	-0.69693	-0.0181671
3117.77	0.581329	-7.47681e-06
3122.09	0.580872	-9.33838e-06
3126.43	-0.69696	-0.015094
3130.79	0.581299	-6.50024e-06
3135.11	0.579895	-3.2959e-06
3139.45	-0.697845	-0.012738
3143.81	0.580597	-1.58691e-06
3148.13	0.579895	-2.2583e-06
3152.49	0.000692749	0.00957642
3156.83	0.580841	-4.15039e-06
3161.15	0.58075	-8.57544e-06
3165.51	0.00170593	0.00721252
3169.85	0.581146	-6.89697e-06
3174.17	0.580017	-3.38745e-06
3178.53	0.00112915	0.00545959
3182.87	0.580933	-8.60596e-06
3187.19	0.579926	-5.43213e-06
3191.55	0.000619507	0.00405701
3195.89	0.579865	1.77002e-06
3200.21	0.580902	-8.39233e-06
3204.59	0.579376	0.0161285
3208.91	0.581177	-8.91113e-06
3213.23	0.580658	-7.62939e-06
3217.61	0.580811	0.0102844
3221.93	0.580688	-3.72314e-06
3226.25	0.581329	-1.37329e-05
3230.63	0.581146	0.00114441
3234.95	0.58017	-6.71387e-07
3239.27	0.579956	-4.76074e-06
3243.65	0.581268	0.000325989
3247.97	0.580292	-5.79834e-07
3252.29	0.580261	-5.76782e-06
3256.67	0.581207	0.000127136
3260.99	0.580963	-6.86646e-06
3265.31	0.580902	-9.94873e-06
3269.69	0.580414	6.31104e-05
3274.01	0.580933	-9.24683e-06
3278.33	0.580078	-5.43213e-06
3282.71	0.580292	3.62854e-05
3287.03	0.581146	-1.06812e-05
3291.35	0.58078	-1.01013e-05
3295.73	0.580261	2.45361e-05
3300.05	0.580475	-4.5166e-06
3304.37	0.579834	-2.28882e-06
3308.75	0.581177	7.87354e-06
3313.07	0.581238	-1.02844e-05
3317.39	0.579895	-3.72314e-06
3321.77	0.580383	1.04065e-05
3326.09	0.579926	-1.28174e-06
3330.41	0.580475	-9.09424e-06
3334.79	0.581024	2.80762e-06
3339.11	0.581207	-1.07117e-05
3343.43	0.580505	-8.17871e-06
3347.81	0.580719	3.50952e-06
3352.13	0.581085	-9.79614e-06
3356.45	0.580994	-1.37024e-05
3360.83	0.581055	-3.17383e-06
3365.15	0.581116	-1.12e-05
3369.49	-0.697327	-0.022702
3373.85	0.580048	4.30298e-06
3378.17	0.580078	-2.2583e-06
3382.51	-0.697876	-0.018454
3386.87	0.580322	6.10352e-07
3391.19	0.580078	-2.83813e-06
3395.53	-0.697357	-0.0154663
3399.89	0.581207	-5.52368e-06
3404.21	0.580017	-2.04468e-06
3408.55	-0.697601	-0.01315
3412.91	0.580811	-4.48608e-06
3417.23	0.580627	-7.53784e-06
3421.59	0.000811768	0.00936279
3425.93	0.580139	3.05176e-07
3430.25	0.579895	-2.62451e-06
3434.61	0.000964355	0.00709412
3438.95	0.579956	5.49316e-07
3443.27	0.580017	-2.38037e-06
3447.63	0.00173645	0.00539856
3451.97	0.580688	-4.76074e-06
3456.29	0.580017	-3.08228e-06
3460.65	0.00124512	0.00404907
3464.99	0.579926	1.58691e-06
3469.31	0.581238	-1.33972e-05
3473.69	0.57901	0.0163818
3478.01	0.580902	-3.44849e-06
3482.33	0.581146	-1.21765e-05
3486.71	0.580109	0.0108856
3491.03	0.580536	-3.2959e-06
3495.35	0.580902	-9.91821e-06
3499.73	0.581024	0.00152496
3504.05	0.580505	-6.16455e-06
3508.37	0.5802	-4.94385e-06
3512.75	0.580383	0.000456329
3517.07	0.580811	-5.85937e-06
3521.39	0.579865	-1.7395e-06
3525.77	0.58017	0.00019516
3530.09	0.580475	-3.20435e-06
3534.41	0.581085	-1.22681e-05
3538.79	0.581329	8.95691e-05
3543.11	0.580078	-1.09863e-06
3547.43	0.579773	-4.02832e-06
3551.81	0.579712	5.69153e-05
3556.13	0.579926	-2.01416e-06
3560.45	0.58075	-9.0332e-06
3564.83	0.58075	2.8717e-05
3569.15	0.579926	-6.40869e-07
3573.47	0.580597	-1.00708e-05
3577.85	0.58136	1.40381e-05
3582.17	0.580872	-7.69043e-06
3586.49	0.580078	-4.11987e-06
3590.87	0.580231	1.40991e-05
3595.19	0.579926	-2.31934e-06
3599.51	0.581207	-1.36719e-05
3603.89	0.579834	9.94873e-06
3608.21	0.580719	-7.8125e-06
3612.53	0.581055	-1.16272e-05
3616.91	0.580963	1.25122e-06
3621.23	0.581085	-1.13831e-05
3625.55	0.580231	-5.88989e-06
3629.93	0.580231	6.37817e-06
3634.25	0.580078	-3.14331e-06
3638.59	-0.697388	-0.022876
3642.95	0.579895	6.50024e-06
3647.27	0.579895	-3.66211e-07
3651.61	-0.696777	-0.0187561
3655.97	0.5802	3.87573e-06
3660.29	0.580322	-4.27246e-06
3664.63	-0.697968	-0.0158203
3668.99	0.580109	2.96021e-06
3673.31	0.581238	-1.21155e-05
3677.65	-0.698151	-0.0135071
3682.01	0.581146	-5.24902e-06
3686.33	0.579926	-1.92261e-06
3690.69	0.0012146	0.00914001
3695.03	0.580994	-4.08936e-06
3699.35	0.580627	-4.60815e-06
3703.71	0.000595093	0.00697083
3708.05	0.58078	-5.88989e-06
3712.37	0.580261	-4.5166e-06
3716.73	0.000640869	0.00535217
3721.07	0.58017	-2.41089e-06
3725.39	0.580414	-4.82178e-06
3729.75	0.00196838	0.00403168
3734.09	0.579865	2.0752e-06
3738.41	0.581238	-1.12915e-05
3742.79	0.57959	0.0165802
3747.11	0.580109	-1.77002e-06
3751.43	0.581085	-1.05896e-05
3755.81	0.579468	0.011438
3760.13	0.581268	-9.30786e-06
3764.45	0.580353	-7.78198e-06
3768.83	0.580627	0.00203003
3773.15	0.580719	-4.57764e-06
3777.47	0.580444	-6.65283e-06
3781.85	0.580902	0.000600281
3786.17	0.579926	1.2207e-07
3790.49	0.580048	-4.69971e-06
3794.87	0.580994	0.000262299
3799.19	0.580444	-4.48608e-06
3803.51	0.580139	-3.72314e-06
3807.89	0.581177	0.000131561
3812.21	0.580963	-4.79126e-06
3816.53	0.579895	-3.90625e-06
3820.91	0.580139	8.03833e-05
3825.23	0.581238	-1.00098e-05
3829.55	0.580017	-1.80054e-06
3833.93	0.580811	4.19617e-05
3838.25	0.579987	-1.15967e-06
3842.57	0.580231	-6.19507e-06
3846.95	0.581299	2.24609e-05
3851.27	0.580017	-1.2207e-06
3855.59	0.580322	-6.16455e-06
3859.97	0.579926	2.38953e-05
3864.29	0.581085	-8.36182e-06
3868.61	0.581238	-1.24817e-05
3872.99	0.580872	1.03455e-05
3877.31	0.579803	9.46045e-07
3881.63	0.580261	-5.92041e-06
3886.01	0.579926	1.22681e-05
3890.33	0.581055	-9.18579e-06
3894.65	0.579895	-4.5166e-06
3899.03	0.5802	4.57764e-06
3903.35	0.580994	-9.52148e-06
3907.69	-0.69696	-0.0230621
3912.05	0.580383	2.68555e-06
3916.37	0.580017	-2.19727e-06
3920.71	-0.697632	-0.0189819
3925.07	0.581268	-4.66919e-06
3929.39	0.58017	-4.15039e-06
3933.73	-0.697845	-0.0161224
3938.09	0.579895	6.10352e-06
3942.41	0.580139	-7.65991e-06
3946.75	-0.697388	-0.013858
3951.11	0.581146	-4.54712e-06
3955.43	0.579865	-1.43433e-06
3959.79	0.00139465	0.00889893
3964.13	0.579834	1.28174e-06
3968.45	0.581085	-1.0437e-05
3972.81	0.00159912	0.00682617
3977.15	0.581116	-5.79834e-06
3981.47	0.580261	-3.63159e-06
3985.83	0.00160828	0.00526215
3990.17	0.580231	3.66211e-07
3994.49	0.581116	-1.14441e-05
3998.85	0.00153809	0.00400757
4003.19	0.579803	2.13623e-07
4007.51	0.580261	-6.10352e-06
4011.89	0.579071	0.0167664
4016.21	0.581085	-7.53784e-06
4020.53	0.581116	-1.10168e-05
4024.91	0.579681	0.0118744
4029.23	0.579834	1.06812e-06
4033.55	0.58078	-9.24683e-06
4037.93	0.581299	0.00262482
4042.25	0.579895	1.06812e-06
4046.57	0.581085	-1.0376e-05
4050.95	0.579895	0.000761414
4055.27	0.580261	-6.40869e-07
4059.59	0.581055	-1.0437e-05
4063.97	0.581207	0.000338684
4068.29	0.580353	-4.45557e-06
4072.61	0.580933	-1.03455e-05
4076.99	0.579803	0.000186249
4081.31	0.580933	-7.90405e-06
4085.63	0.580231	-4.60815e-06
4090.01	0.580017	0.000106873
4094.33	0.58075	-6.86646e-06
4098.65	0.580597	-8.45337e-06
4103.03	0.580109	6.50635e-05
4107.35	0.580811	-6.80542e-06
4111.67	0.581116	-1.12305e-05
4116.05	0.580963	3.76282e-05
4120.37	0.579926	-2.47192e-06
4124.69	0.580658	-6.19507e-06
4129.07	0.581024	2.18201e-05
4131.25	0.580261	-4.30298e-06

File: pulses_3000_to_4000.txt
Time (s)	WE(1).Potential (V)	WE(1).Current (A)
4156.24	-0.696411	-0.0232849
4160.6	0.580933	2.34985e-06
4164.92	0.580536	-7.50732e-06
4169.26	-0.697021	-0.0191925
4173.62	0.580322	4.36401e-06
4177.94	0.5802	-2.50244e-06
4182.28	-0.69809	-0.0163666
4186.64	0.580566	1.09863e-06
4190.96	0.58017	-5.09644e-06
4195.3	-0.697876	-0.0141022
4199.66	0.580536	-1.83105e-07
4203.98	0.580322	-4.5166e-06
4208.34	0.0013916	0.00870361
4212.68	0.581085	-3.08228e-06
4217	0.581055	-1.01624e-05
4221.36	0.00141296	0.00669952
4225.7	0.580414	5.49316e-07
4230.02	0.580292	-4.5166e-06
4234.38	0.001474	0.00518768
4238.72	0.580353	1.52588e-07
4243.04	0.581024	-1.05896e-05
4247.4	0.000949097	0.00397278
4251.74	0.58017	5.79834e-07
4256.06	0.580414	-6.65283e-06
4260.44	0.5802	0.0168823
4264.76	0.580444	-2.31934e-06
4269.08	0.580078	-3.57056e-06
4273.46	0.580139	0.0121552
4277.78	0.581055	-6.2561e-06
4282.1	0.579865	-3.20435e-06
4286.48	0.581116	0.00323608
4290.8	0.581024	-8.57544e-06
4295.12	0.581024	-1.171875E-05
4299.5	0.579742	0.00089447
4303.82	0.580841	-7.75146e-06
4308.14	0.58075	-8.97217e-06
4312.52	0.580078	0.000410217
4316.84	0.579987	-5.18799e-07
4321.16	0.580688	-9.79614e-06
4325.54	0.580078	0.000223663
4329.86	0.580109	-2.99072e-06
4334.18	0.581177	-1.28174e-05
4338.56	0.581055	0.000126312
4342.88	0.580292	-2.99072e-06
4347.2	0.580627	-8.75854e-06
4351.58	0.581268	7.7301e-05
4355.9	0.581268	-1.00403e-05
4360.22	0.580017	-4.76074e-06
4364.6	0.580017	5.69153e-05
4368.92	0.579987	-3.96729e-07
4373.24	0.580231	-5.09644e-06
4377.62	0.579987	3.90625E-05
4381.94	0.580383	-6.01196e-06
4386.26	0.581085	-1.24512e-05
4390.64	0.581146	1.98364e-05
4394.96	0.581116	-1.0376e-05
4399.28	0.580383	-4.94385e-06
4403.66	0.580658	1.60828e-05
4407.98	0.579956	-1.58691e-06
4412.3	0.580658	-9.97925e-06
4416.68	0.580963	7.75146e-06
4421	0.5802	-2.92969e-06
4425.34	-0.696503	-0.0233307
4429.7	0.58017	9.64355e-06
4434.02	0.580353	-3.02124e-06
4438.36	-0.696594	-0.0193817
4442.72	0.580658	1.80054e-06
4447.04	0.581055	-1.12305e-05
4451.38	-0.697479	-0.0165985
4455.74	0.580109	4.76074e-06
4460.06	0.580811	-6.71387e-06
4464.4	-0.69812	-0.0143524
4468.76	0.579926	6.53076e-06
4473.08	0.580475	-9.39941e-06
4477.44	0.000558472	0.00855408
4481.78	0.580322	8.23975e-07
4486.1	0.581024	-1.06201e-05
4490.46	0.000897217	0.00660645
4494.8	0.580719	-8.54492e-07
4499.12	0.580872	-8.17871e-06
4503.48	0.000872803	0.0051413
4507.82	0.5802	-5.49316e-07
4512.14	0.580048	-3.41797e-06
4516.5	0.001651	0.00395752
4520.84	0.580048	1.49536e-06
4525.16	0.581238	-1.20239e-05
4529.54	0.580109	0.0170258
4533.86	0.581238	-8.54492e-06
4538.18	0.580109	-2.71606e-06
4542.56	0.580139	0.0124542
4546.88	0.580627	-3.8147e-06
4551.2	0.5802	-3.87573e-06
4555.58	0.58017	0.00413055
4559.9	0.580048	9.15527e-07
4564.22	0.579956	-8.54492e-07
4568.6	0.581268	0.0010376
4572.92	0.581146	-8.66699e-06
4577.24	0.579834	-2.71606e-06
4581.62	0.580139	0.000491394
4585.94	0.580475	-4.91333e-06
4590.26	0.579865	-1.43433e-06
4594.64	0.581207	0.000265625
4598.96	0.581177	-9.70459e-06
4603.28	0.581116	-1.1322e-05
4607.66	0.580994	0.00015863
4611.98	0.581146	-9.58252e-06
4616.3	0.580902	-1.12e-05
4620.68	0.580841	0.000100433
4625	0.581238	-1.08948e-05
4629.32	0.579956	-3.14331e-06
4633.7	0.579987	7.09839e-05
4638.02	0.581055	-6.86646e-06
4642.34	0.5802	-4.79126e-06
4646.72	0.580017	4.98047e-05
4651.04	0.579926	-1.5564e-06
4655.36	0.580475	-7.08008e-06
4659.74	0.579956	3.59192e-05
4664.06	0.580811	-7.01904e-06
4668.38	0.579926	-2.99072e-06
4672.76	0.581177	1.70898e-05
4677.08	0.581207	-9.97925e-06
4681.4	0.581207	-1.35803e-05
4685.78	0.580048	1.84021e-05
4690.1	0.580261	-3.78418e-06
4694.44	-0.697021	-0.023407
4698.8	0.580627	8.48389e-06
4703.12	0.579865	-1.77002e-06
4707.46	-0.697876	-0.0195251
4711.82	0.580048	1.10474e-05
4716.14	0.580109	-2.34985e-06
4720.48	-0.697266	-0.0167664
4724.84	0.580719	3.17383e-06
4729.16	0.581146	-1.0437e-05
4733.5	-0.697388	-0.014566
4737.86	0.580048	7.20215e-06
4742.18	0.580231	-3.87573e-06
4746.54	0.00124817	0.00839844
4750.88	0.580902	-1.00708e-06
4755.2	0.580383	-6.5918e-06
4759.56	0.00135193	0.0065036
4763.9	0.580688	-5.79834e-07
4768.22	0.579926	-2.47192e-06
4772.58	0.000741577	0.00507996
4776.92	0.581146	-5.58472e-06
4781.24	0.58017	-3.93677e-06
4785.6	0.00120544	0.00392395
4789.94	0.579865	2.04468e-06
4794.26	0.580048	-1.00708e-06
4798.64	0.580475	0.0171326
4802.96	0.580078	9.46045e-07
4807.28	0.579956	-3.75366e-06
4811.66	0.579468	0.0126678
4815.98	0.580566	-3.96729e-07
4820.3	0.580627	-7.20215e-06
4824.68	0.580719	0.00480377
4829	0.580963	-6.74438e-06
4833.32	0.580811	-8.60596e-06
4837.7	0.579865	0.00117584
4842.02	0.580353	-2.89917e-06
4846.34	0.581146	-1.22375e-05
4850.72	0.581177	0.000556946
4855.04	0.579926	1.83105e-07
4859.36	0.581024	-8.5144e-06
4863.74	0.579956	0.00031839
4868.06	0.581238	-8.60596e-06
4872.38	0.580811	-9.0332e-06
4876.76	0.580353	0.0001922
4881.08	0.580322	-4.18091e-06
4885.4	0.580841	-1.07727e-05
4889.78	0.5802	0.000125763
4894.1	0.581299	-1.01318e-05
4898.42	0.580841	-1.0498e-05
4902.8	0.579926	8.66699e-05
4907.12	0.580505	-5.85937e-06
4911.44	0.5802	-4.54712e-06
4915.82	0.579987	6.20117e-05
4920.14	0.580536	-6.13403e-06
4924.46	0.581024	-1.28174e-05
4928.84	0.58078	3.80859e-05
4933.16	0.579926	-2.28882e-06
4937.48	0.580536	-7.01904e-06
4941.86	0.580109	3.22876e-05
4946.18	0.579803	-1.83105e-06
4950.5	0.580902	-9.30786e-06
4954.88	0.581085	1.63269e-05
4959.2	0.58075	-8.20923e-06
4963.54	-0.696838	-0.0234497
4967.9	0.580933	1.08948e-05
4972.22	0.580261	-4.36401e-06
4976.56	-0.696716	-0.0196381
4980.92	0.579987	1.47095e-05
4985.24	0.580078	-2.0752e-06
4989.58	-0.697906	-0.0169342
4993.94	0.581238	1.92261e-06
4998.26	0.581116	-1.03149e-05
5002.6	-0.696869	-0.0147614
5006.96	0.580536	5.58472e-06
5011.28	0.581024	-9.21631e-06
5015.64	0.0010498	0.00820007
5019.98	0.580414	3.63159e-06
5024.3	0.580719	-7.62939e-06
5028.66	0.00145264	0.00636627
5033	0.580566	2.31934e-06
5037.32	0.579865	-1.77002e-06
5041.68	0.00187378	0.00498138
5046.02	0.580811	-3.2959e-06
5050.34	0.5802	-3.60107e-06
5054.7	0.00188904	0.00386261
5059.04	0.580963	-4.66919e-06
5063.36	0.58078	-8.60596e-06
5067.74	0.580353	0.0171906
5072.06	0.58017	1.12915e-06
5076.38	0.581177	-1.21155e-05
5080.76	0.580353	0.012851
5085.08	0.579834	1.34277e-06
5089.4	0.579956	-2.68555e-06
5093.78	0.580566	0.0057666
5098.1	0.58078	-5.27954e-06
5102.42	0.580444	-7.47681e-06
5106.8	0.579895	0.00133301
5111.12	0.579926	3.35693e-07
5115.44	0.580383	-6.10352e-06
5119.82	0.580627	0.000635376
5124.14	0.580261	-2.04468e-06
5128.46	0.581024	-1.20239e-05
5132.84	0.581116	0.000357635
5137.16	0.580261	-4.05884e-06
5141.48	0.580383	-5.64575e-06
5145.86	0.580322	0.00022644
5150.18	0.581024	-8.08716e-06
5154.5	0.580872	-1.01624e-05
5158.88	0.580933	0.000146667
5163.2	0.581207	-8.81958e-06
5167.52	0.579834	-3.69263e-06
5171.9	0.580627	9.75037e-05
5176.22	0.580444	-3.78418e-06
5180.54	0.5802	-4.88281e-06
5184.92	0.580139	7.26318e-05
5189.24	0.58017	-1.52588e-06
5193.56	0.581055	-1.19934e-05
5197.94	0.579773	5.42603e-05
5202.26	0.579956	-3.35693e-07
5206.58	0.580444	-4.76074e-06
5210.96	0.580231	3.54004e-05
5215.28	0.58078	-7.50732e-06
5219.6	0.581055	-1.16882e-05
5223.98	0.581177	2.16675e-05
5228.3	0.581268	-1.00403e-05
5232.64	-0.697601	-0.0235229
5237	0.581207	1.52283e-05
5241.32	0.580872	-8.11768e-06
5245.66	-0.697174	-0.0197754
5250.02	0.580322	1.38245e-05
5254.34	0.581146	-9.85718e-06
5258.68	-0.697327	-0.0171143
5263.04	0.580292	1.11694e-05
5267.36	0.581329	-1.13525e-05
5271.7	-0.696777	-0.0149658
5276.06	0.580597	7.72095e-06
5280.38	0.580902	-9.49097e-06
5284.74	0.000674438	0.00805664
5289.08	0.579865	8.60596e-06
5293.4	0.581024	-1.02234e-05
5297.76	0.000695801	0.00626495
5302.1	0.581238	-2.62451e-06
5306.42	0.580322	-4.91333e-06
5310.78	0.00174866	0.00491272
5315.12	0.580963	-1.52588e-07
5319.44	0.581268	-1.10474e-05
5323.8	0.00121765	0.00382263
5328.14	0.580872	-1.31226e-06
5332.46	0.5802	-2.80762e-06
5336.84	0.579315	0.0172729
5341.16	0.581085	-5.09644e-06
5345.48	0.580872	-8.78906e-06
5349.86	0.580597	0.013028
5354.18	0.580658	-2.83813e-06
5358.5	0.581146	-1.05286e-05
5362.88	0.580811	0.00658142
5367.2	0.580261	-9.76562e-07
5371.52	0.580566	-6.71387e-06
5375.9	0.580719	0.00148224
5380.22	0.580078	-4.88281e-07
5384.54	0.580017	-2.74658e-06
5388.92	0.580688	0.000708923
5393.24	0.581207	-8.69751e-06
5397.56	0.581268	-1.15662e-05
5401.94	0.58017	0.000411407
5406.26	0.580017	-1.58691e-06
5410.58	0.580444	-4.76074e-06
5414.96	0.581085	0.000252747
5419.28	0.580902	-6.95801e-06
5423.6	0.580109	-3.41797e-06
5427.98	0.58017	0.000172607
5432.3	0.581238	-9.46045e-06
5436.62	0.580322	-6.71387e-06
5441	0.581146	0.000113098
5445.32	0.580017	-6.10352e-07
5449.64	0.581146	-1.18103e-05
5454.02	0.580658	8.26721e-05
5456.2	0.581207	-1.2085e-05