Folder: electrochromicfilms/Edgar/20240515/20240515/EC_measurements/Sample_20240502_C/CV/data

File: OCP_1
Time (s)	WE(1).Potential (V)
2.08277	-0.540161
3.08277	-0.539246
4.08277	-0.538025
5.08277	-0.536804
6.08277	-0.535889
7.08277	-0.534668
8.08277	-0.533752
9.08277	-0.532532
10.0828	-0.531616
11.0828	-0.530396
12.0828	-0.52948
13.0828	-0.528564
14.0828	-0.527344
15.0828	-0.526428
16.0828	-0.525513
17.0828	-0.524597
18.0828	-0.523682
19.0828	-0.522766
20.0828	-0.521545
21.0828	-0.52063
22.0828	-0.519714
23.0828	-0.518799
24.0828	-0.517883
25.0828	-0.516968
26.0828	-0.516357
27.0828	-0.515442
28.0828	-0.514526
29.0828	-0.513611
30.0828	-0.512695
31.0828	-0.512085
32.0828	-0.511169
33.0828	-0.510254
34.0828	-0.509338
35.0828	-0.508728
36.0828	-0.5078125
37.0828	-0.506897
38.0828	-0.506287
39.0828	-0.505371
40.0828	-0.504761
41.0828	-0.503845
42.0828	-0.503235
43.0828	-0.502319
44.0828	-0.501709
45.0828	-0.500793
46.0828	-0.500183
47.0828	-0.499268
48.0828	-0.498566
49.0828	-0.497833
50.0828	-0.497131
51.0828	-0.496429
52.0828	-0.495697
53.0828	-0.494995
54.0828	-0.494324
55.0828	-0.493622
56.0828	-0.49292
57.0828	-0.492249
58.0828	-0.491577
59.0828	-0.490936
60.0828	-0.490265
61.0828	-0.489624

File: pulses_steps_m0p9V_1V.txt
Time (s)	WE(1).Potential (V)	WE(1).Current (A)	External(1).External 2 (V)
61.6963	-0.897827	-0.00134918	3.64136
63.9463	-0.898743	-0.000208374	3.64197
66.1963	-0.898743	-0.000122955	3.52448
68.4463	-0.897522	-9.04236e-05	3.60291
70.6963	-0.8984375	-7.2937e-05	3.4256
72.9463	-0.898743	-6.44226e-05	3.40637
75.1963	-0.898743	-5.88074e-05	3.46558
77.4463	-0.898743	-5.52063e-05	3.54309
79.6963	-0.8984375	-5.63354e-05	3.60291
81.9463	-0.8984375	-4.90723e-05	3.44574
84.1963	-0.897522	-5.18494e-05	3.48541
86.4463	-0.897827	-4.61426e-05	3.52448
88.6963	-0.897827	-4.41284e-05	3.4848
90.9463	-0.898132	-4.39148e-05	3.54401
93.1963	-0.897827	-4.10156e-05	3.60291
95.4463	-0.8984375	-3.52173e-05	3.52448
97.6963	-0.897827	-3.83606e-05	3.44574
99.9463	-0.898743	-3.69873e-05	3.46588
102.196	-0.898132	-3.25928e-05	3.44543
104.446	-0.899353	-3.38745e-05	3.52478
106.696	-0.899048	-3.31116e-05	3.52417
108.946	-0.897827	-3.36304e-05	3.58246
111.196	-0.897827	-3.43018e-05	3.48541
113.446	-0.898132	-3.57971e-05	3.5437
115.696	-0.899658	-2.98157e-05	3.58307
117.946	-0.8984375	-2.62146e-05	3.58246
120.196	-0.897827	-2.94495e-05	3.58246
122.456	1.00037	0.000397949	3.5614
124.706	1.00189	0.00013504	3.65967
126.956	1.00128	7.85217e-05	3.62061
129.206	1.00037	5.77087e-05	3.71796
131.456	0.999756	4.52881e-05	3.78204
133.706	1.00067	3.45154e-05	3.71826
135.956	1.00098	2.61536e-05	3.87878
138.206	1.00159	2.33765e-05	3.75702
140.456	1.00037	2.2522e-05	3.78143
142.706	1.00037	2.00806e-05	3.73688
144.956	0.999756	1.35498e-05	3.7561
147.206	0.999756	1.39771e-05	3.60046
149.456	1.00128	1.22681e-05	3.84003
151.706	1.00128	1.10779e-05	3.75641
153.956	1.00037	8.17871e-06	3.69843
156.206	1.00098	1.25732e-05	3.73749
158.456	1.00098	8.54492e-06	3.64044
160.706	1.00006	1.14136e-05	3.80096
162.956	1.00098	7.72095e-06	3.69812
165.206	1.00067	9.0332e-06	3.81989
167.456	1.00159	7.17163e-06	3.63983
169.706	1.00098	5.64575e-06	3.85895
171.956	1.00037	1.22375e-05	3.80157
174.206	1.00067	6.65283e-06	3.65997
176.456	1.00006	1.0376e-05	3.80066
178.706	1.00098	9.18579e-06	3.82019
180.956	1.00128	6.68335e-06	3.69812
183.216	-0.8984375	-0.000240631	3.58307
185.466	-0.8984375	-0.000171326	3.70026
187.716	-0.897522	-0.000134918	3.58215
189.966	-0.898743	-0.000107452	3.54431
192.216	-0.899353	-9.11255e-05	3.58307
194.466	-0.899353	-7.78809e-05	3.6026
196.716	-0.8984375	-6.79016e-05	3.48602
198.966	-0.899048	-5.77393e-05	3.64227
201.216	-0.897522	-5.55115e-05	3.52356
203.466	-0.897827	-4.86145e-05	3.62244
205.716	-0.8984375	-4.55017e-05	3.54401
207.966	-0.897827	-4.04663e-05	3.58337
210.216	-0.8984375	-3.67737e-05	3.5437
212.466	-0.8984375	-3.53699e-05	3.56323
214.716	-0.898743	-3.34778e-05	3.56293
216.966	-0.897827	-3.36304e-05	3.60199
219.216	-0.898132	-3.22876e-05	3.5437
221.466	-0.897827	-3.13721e-05	3.60291
223.716	-0.898743	-3.04871e-05	3.56323
225.966	-0.898743	-2.71301e-05	3.54431
228.216	-0.897827	-2.90527e-05	3.58276
230.466	-0.897827	-2.44751e-05	3.48419
232.716	-0.8984375	-2.70081e-05	3.46588
234.966	-0.898743	-2.48718e-05	3.82202
237.216	-0.899048	-2.49634e-05	3.56354
239.466	-0.898743	-2.3407e-05	3.64227
241.726	1.00037	0.00154938	3.48328
243.976	1.00098	0.000130066	3.69843
246.226	1.00098	8.2489e-05	3.83972
248.476	1.00037	5.96924e-05	3.64044
250.726	1.00006	4.57458e-05	3.69781
252.976	1.00098	3.71094e-05	3.75671
255.226	1.00067	3.00598e-05	3.69873
257.476	1.00128	2.62451e-05	3.85956
259.726	1.00037	2.40784e-05	3.65967
261.976	1.00159	2.18201e-05	3.83972
264.226	1.00128	1.77917e-05	3.75641
266.476	0.999756	1.78223e-05	3.85925
268.726	1.00037	1.63879e-05	3.80066
270.976	1.00159	1.32141e-05	3.69843
273.226	0.999756	1.32141e-05	3.73779
275.476	1.00159	1.25122e-05	3.80127
277.726	1.00098	8.66699e-06	3.64044
279.976	1.00006	9.24683e-06	3.93738
282.226	1.00128	1.01013e-05	3.82019
284.476	1.00067	1.25427e-05	3.80096
286.726	1.00037	1.14441e-05	3.73779
288.976	1.00006	8.69751e-06	3.80096
291.226	1.00098	9.61304e-06	3.84003
293.476	1.00098	7.04956e-06	3.64014
295.726	1.00006	7.96509e-06	3.80096
297.976	1.00098	8.3313e-06	3.82019
300.226	1.00067	6.40869e-06	3.78174
302.486	-0.8984375	-0.000210114	3.8031
304.736	-0.898743	-0.000130554	3.80341
306.986	-0.898743	-0.000100403	3.68103
309.236	-0.898132	-8.73108e-05	3.64227
311.486	-0.898132	-7.73926e-05	3.64197
313.736	-0.8984375	-6.72302e-05	3.58276
315.986	-0.898132	-7.04651e-05	3.5434
318.236	-0.897522	-5.86853e-05	3.62274
320.486	-0.898743	-5.03845e-05	3.54401
322.736	-0.898132	-4.57458e-05	3.6026
324.986	-0.898132	-4.57153e-05	3.6615
327.236	-0.899658	-4.03137e-05	3.72009
329.486	-0.898132	-3.96729e-05	3.78326
331.736	-0.899048	-2.93884e-05	3.60291
333.986	-0.899048	-3.15552e-05	3.54401
336.236	-0.898132	-3.43323e-05	3.64197
338.486	-0.8984375	-3.13416e-05	3.5437
340.736	-0.899353	-2.72217e-05	3.70087
342.986	-0.898132	-2.78015e-05	3.62244
345.236	-0.898743	-2.88696e-05	3.58246
347.486	-0.899048	-2.84729e-05	3.71979
349.736	-0.898132	-2.84424e-05	3.56384
351.986	-0.897827	-2.76794e-05	3.5437
354.236	-0.897827	-2.55737e-05	3.62244
356.486	-0.898132	-2.65503e-05	3.73871
358.736	-0.899048	-2.32849e-05	3.58276
360.986	-0.898132	-2.83813e-05	3.62274
363.246	1.00037	0.000141998	3.65967
365.496	1.00037	7.79114e-05	3.69873
367.746	1.00098	5.55725e-05	3.78174
369.996	1.00006	4.48914e-05	3.80096
372.246	1.00128	3.43323e-05	3.67828
374.496	1.00067	3.33252e-05	3.69873
376.746	1.00037	2.82288e-05	3.78143
378.996	1.00037	2.28577e-05	3.84033
381.246	1.00067	2.41394e-05	3.89862
383.496	1.00067	1.86462e-05	3.9386
385.746	1.00067	1.58081e-05	3.73718
387.996	1.00006	1.78528e-05	3.65967
390.246	1.00037	1.75781e-05	3.83972
392.496	1.00067	1.47095e-05	3.71765
394.746	1.00006	1.50146e-05	3.73749
396.996	1.00037	1.33667e-05	3.71826
399.246	1.00037	1.32751e-05	3.83942
401.496	1.00037	1.40686e-05	4.05487
403.746	1.00006	1.27258e-05	3.71796
405.996	1.00067	1.01318e-05	3.73779
408.246	1.00128	8.57544e-06	3.80066
410.496	1.00006	1.33362e-05	3.78113
412.746	1.00037	1.12e-05	3.75671
414.996	1.00006	1.23596e-05	3.7561
417.246	1.00037	1.2085e-05	3.8205
419.496	1.00006	1.08337e-05	3.6792
421.756	-0.898132	-0.000228699	3.78326
424.006	-0.899048	-0.000124268	3.84216
426.256	-0.8984375	-9.41772e-05	3.88
428.506	-0.899658	-7.47681e-05	3.66119
430.756	-0.898743	-6.58569e-05	3.69995
433.006	-0.899048	-5.76477e-05	3.70026
435.256	-0.898743	-5.29785e-05	3.64166
437.506	-0.898132	-5.15442e-05	3.64197
439.756	-0.898743	-4.78821e-05	3.60168
442.006	-0.899048	-4.29993e-05	3.56323
444.256	-0.8984375	-4.33655e-05	3.73901
446.506	-0.897522	-4.05884e-05	3.68073
448.756	-0.899048	-3.5614e-05	3.66089
451.006	-0.898743	-3.5553e-05	3.71918
453.256	-0.898743	-3.58887e-05	3.58337
455.506	-0.899048	-3.46985e-05	3.58276
457.756	-0.898132	-3.16467e-05	3.5434
460.006	-0.898743	-3.00293e-05	3.73932
462.256	-0.898132	-2.99072e-05	3.73932
464.506	-0.897522	-3.21655e-05	3.68103
466.756	-0.899658	-2.62451e-05	3.64197
469.006	-0.898743	-2.52686e-05	3.68042
471.256	-0.898743	-2.57874e-05	3.71979
473.506	-0.899353	-2.42615e-05	3.82172
475.756	-0.899353	-2.38037e-05	3.58276
478.006	-0.8984375	-2.64893e-05	3.75854
480.256	-0.8984375	-2.97241e-05	3.50464
482.516	1.00128	0.000217499	3.69843
484.766	1.00006	7.18079e-05	3.67889
487.016	1.00006	5.34668e-05	3.73749
489.266	1.00006	4.40979e-05	3.75671
491.516	1.00098	3.48206e-05	3.71796
493.766	1.00067	3.28979e-05	3.83942
496.016	1.00067	2.98767e-05	3.82019
498.266	1.00067	2.39868e-05	3.8205
500.516	1.00098	2.01721e-05	3.83972
502.766	0.999756	2.03247e-05	3.80096
505.016	1.00159	1.59607e-05	3.71796
507.266	1.00037	1.72424e-05	3.6792
509.516	1.00037	1.71814e-05	3.84003
511.766	1.00006	1.68457e-05	3.75641
514.016	1.00067	1.07727e-05	3.73749
516.266	1.00067	1.31531e-05	3.6792
518.516	1.00189	9.12476e-06	3.84003
520.766	1.00128	7.04956e-06	3.89801
523.016	1.00067	9.27734e-06	3.80096
525.266	1.00067	1.1261e-05	3.80096
527.516	1.00067	1.08643e-05	3.71796
529.766	1.00098	9.39941e-06	3.84003
532.016	1.00098	7.69043e-06	3.73749
534.266	1.00098	9.00269e-06	3.8208
536.516	1.00006	1.14746e-05	3.87878
538.766	0.999756	8.94165e-06	3.65875
541.016	1.00067	7.20215e-06	3.7561
543.276	-0.899353	-0.000133942	3.90045
545.526	-0.898743	-9.8175e-05	3.73932
547.776	-0.897217	-7.48291e-05	3.78387
550.026	-0.897827	-6.29883e-05	3.6618
552.276	-0.897827	-5.59998e-05	3.73901
554.526	-0.898743	-4.77905e-05	3.62183
556.776	-0.8984375	-4.81567e-05	3.80219
559.026	-0.898132	-4.22363e-05	3.64227
561.276	-0.898132	-4.47693e-05	3.78326
563.526	-0.8984375	-4.05579e-05	3.6026
565.776	-0.898743	-3.94592e-05	3.82172
568.026	-0.898132	-3.8147e-05	3.62274
570.276	-0.899048	-3.32642e-05	3.64227
572.526	-0.899353	-3.00903e-05	3.71979
574.776	-0.8984375	-3.29285e-05	3.71948
577.026	-0.897522	-3.2074e-05	3.71948
579.276	-0.899048	-3.10669e-05	3.71979
581.526	-0.897827	-3.11279e-05	3.46619
583.776	-0.898132	-2.8717e-05	3.73932
586.026	-0.899048	-2.56042e-05	3.66211
588.276	-0.899048	-2.70691e-05	3.64227
590.526	-0.899048	-2.35901e-05	3.70056
592.776	-0.899048	-2.4292e-05	3.69995
595.026	-0.8984375	-2.48413e-05	3.69995
597.276	-0.898743	-2.17285e-05	3.68103
599.526	-0.8984375	-2.33765e-05	3.71979
601.786	1.00067	0.000957642	3.60046
604.036	1.00098	8.11768e-05	3.64014
606.286	1.00006	5.17273e-05	3.69843
608.536	1.00098	3.78418e-05	3.75641
610.786	1.00098	3.29285e-05	3.75671
613.036	1.00006	2.7832e-05	3.8208
615.286	0.999756	2.59399e-05	3.71826
617.536	1.00128	2.15454e-05	3.89771
619.786	1.00067	2.24915e-05	3.71735
622.036	1.00128	1.72119e-05	3.7558
624.286	1.00067	1.66321e-05	3.78143
626.536	0.999756	1.82495e-05	3.80066
628.786	1.00006	1.40076e-05	3.7558
631.036	1.00006	1.40686e-05	3.82019
633.286	0.999756	1.33362e-05	3.78143
635.536	1.00067	1.08643e-05	3.75671
637.786	1.00128	8.88062e-06	3.67859
640.036	1.00006	1.03149e-05	3.78143
642.286	1.00128	8.42285e-06	3.73718
644.536	1.00067	1.03455e-05	3.83972
646.786	1.00067	8.17871e-06	3.85895
649.036	1.00006	1.01318e-05	3.8205
651.286	1.00067	6.74438e-06	3.87878
653.536	1.00037	1.0376e-05	3.91815
655.786	1.00006	8.66699e-06	3.8205
658.036	1.00067	6.04248e-06	3.69843
660.286	1.00098	5.27954e-06	3.89771
661.676	1.00098	6.65283e-06	3.73749