Folder: electrochromicfilms/Edgar/20240605/20240605/electrodeposition_pulsed_potential_20240605_B (part 3)

File: pulses_4000_to_5000.txt
Time (s)	WE(1).Potential (V)	WE(1).Current (A)
3016.75	-0.698273	-0.0240173
3019.09	0.000588989	0.00709351
3021.41	0.000482178	0.00467041
3023.75	-0.697937	-0.0205109
3026.09	0.000689697	0.00733551
3028.41	-0.000170898	0.00475922
3030.75	-0.698792	-0.0204498
3033.09	-0.000494385	0.00737183
3035.41	-0.000363159	0.00479187
3037.75	-0.698425	-0.0204315
3040.09	-7.32422e-05	0.007388
3042.41	-0.000311279	0.00480621
3044.75	-0.697906	-0.0204285
3047.09	-0.000231934	0.00739594
3049.41	0.000701904	0.00481049
3051.75	-0.697693	-0.0204163
3054.09	-0.000479126	0.00739899
3056.41	-4.88281e-05	0.00482391
3058.75	-0.697784	-0.020401
3061.09	-0.000494385	0.00740051
3063.41	0.000308228	0.004823
3065.75	-0.697601	-0.0203827
3068.09	0.000323486	0.00739685
3070.41	0.000335693	0.00482361
3072.75	-0.698761	-0.0204224
3075.09	0.000720215	0.0074173
3077.41	0.000408936	0.00482666
3079.75	-0.697723	-0.0204102
3082.09	0.000765991	0.00741089
3084.41	-0.000311279	0.00483612
3086.75	-0.698059	-0.020401
3089.09	3.66211e-05	0.00742096
3091.41	0.000238037	0.00483643
3093.75	-0.698792	-0.0203888
3096.09	0.00020752	0.00740723
3098.41	0.000650024	0.00483521
3100.75	-0.697723	-0.0203949
3103.09	-0.000210571	0.00740662
3105.41	-0.000393677	0.00483734
3107.75	-0.69873	-0.0203796
3110.09	-0.000500488	0.00740021
3112.41	-0.000167847	0.00484192
3114.75	-0.69809	-0.0203827
3117.09	0.000158691	0.00739197
3119.41	-3.66211e-05	0.0048407
3121.75	-0.697723	-0.0203766
3124.09	-0.000506592	0.00739746
3126.41	0.000662231	0.004841
3128.75	-0.697968	-0.0203979
3131.09	0.000646973	0.00739136
3133.41	-0.000430298	0.00484283
3135.75	-0.697693	-0.0203918
3138.09	-0.000231934	0.00739136
3140.41	-0.00043335	0.0048468
3142.75	-0.69873	-0.0203888
3145.09	0.000604248	0.00737946
3147.41	0.000759888	0.00483856
3149.75	-0.698761	-0.0203766
3152.09	-0.000460815	0.00738434
3154.41	0.00078125	0.00484253
3156.75	-0.698639	-0.0203705
3159.09	-0.00050354	0.00737823
3161.41	1.52588e-05	0.00484924
3163.75	-0.698334	-0.0203888
3166.09	-0.00050354	0.00739197
3168.41	0.000189209	0.00485046
3170.75	-0.698792	-0.0203888
3173.09	-2.74658e-05	0.0073877
3175.41	0.000735474	0.00484741
3177.75	-0.697998	-0.0203705
3180.09	-0.000460815	0.00737976
3182.41	-0.000415039	0.00485565
3184.75	-0.698425	-0.0203705
3187.09	0.000576782	0.00737122
3189.41	-0.000360107	0.0048584
3191.75	-0.69873	-0.0203766
3194.09	0.000531006	0.00737091
3196.41	0.000817871	0.00485382
3198.75	-0.697571	-0.0203674
3201.09	0.000619507	0.00736328
3203.41	-0.000524902	0.00485809
3205.75	-0.698547	-0.0203613
3208.09	0.000726318	0.0073587
3210.41	-0.00050354	0.00485992
3212.75	-0.69812	-0.0203522
3215.09	-0.000344849	0.00736694
3217.41	-0.000476074	0.00486176
3219.75	-0.697723	-0.0203705
3222.09	-0.000488281	0.00736237
3224.41	0.000750732	0.00485474
3226.75	-0.698425	-0.0203735
3229.09	0.000601196	0.00735809
3231.41	0.000222778	0.00485992
3233.75	-0.698669	-0.0203674
3236.09	-0.000479126	0.00735992
3238.41	-0.000363159	0.00486328
3240.75	-0.697571	-0.0203735
3243.09	-0.000482178	0.00735626
3245.41	-0.000408936	0.00486481
3247.75	-0.698578	-0.0203613
3250.09	-0.000332642	0.00735413
3252.41	0.000238037	0.0048642
3254.75	-0.698029	-0.0203613
3257.09	-0.000439453	0.00735168
3259.41	0.00032959	0.00486511
3261.75	-0.697601	-0.0203613
3264.09	0.00055542	0.00734039
3266.41	1.2207e-05	0.00486603
3268.75	-0.69873	-0.0203522
3271.09	0.000476074	0.007341
3273.41	-0.000448608	0.00487122
3275.75	-0.697601	-0.0203552
3278.09	0.000408936	0.00733612
3280.41	0.000219727	0.00487396
3282.75	-0.69812	-0.0203369
3285.09	-0.000369263	0.00733856
3287.41	0.000640869	0.00486969
3289.75	-0.697876	-0.0203461
3292.09	0.000564575	0.00732727
3294.41	-0.000241089	0.00487335
3296.75	-0.69751	-0.0203369
3299.09	0.000628662	0.00732941
3301.41	0.000131226	0.0048764
3303.75	-0.6987	-0.0203217
3306.09	-9.15527e-06	0.00733093
3308.41	-7.01904e-05	0.00487976
3310.75	-0.698608	-0.0203186
3313.09	-0.000482178	0.00732269
3315.41	0.000717163	0.00487091
3317.75	-0.69873	-0.0203033
3320.09	-0.000476074	0.00732025
3322.41	-0.000369263	0.00488312
3324.75	-0.697906	-0.0202881
3327.09	0.000668335	0.00730957
3329.41	0.00078125	0.00487793
3331.75	-0.698853	-0.0202881
3334.09	-0.000192261	0.00731567
3336.41	-0.000546265	0.00488403
3338.75	-0.6987	-0.0202911
3341.09	3.35693e-05	0.00730896
3343.41	0.000216675	0.00487762
3345.75	-0.698486	-0.020282
3348.09	-0.000509644	0.00730499
3350.41	0.000753784	0.00487518
3352.75	-0.697998	-0.0202789
3355.09	1.52588e-05	0.0072934
3357.41	0.000820923	0.00487885
3359.75	-0.697693	-0.0202728
3362.09	-2.13623e-05	0.00729645
3364.41	-0.000210571	0.00488831
3366.75	-0.698761	-0.0202667
3369.09	-0.000204468	0.00729279
3371.41	-0.000466919	0.00488861
3373.75	-0.697662	-0.0202637
3376.09	0.000418091	0.00728607
3378.41	-2.44141e-05	0.00488586
3380.75	-0.697693	-0.0202484
3383.09	-0.000488281	0.00728516
3385.41	-0.000112915	0.00489197
3387.75	-0.698151	-0.0202881
3390.09	4.27246e-05	0.0072937
3392.41	0.000759888	0.00488434
3394.75	-0.698029	-0.020285
3397.09	-3.35693e-05	0.0072879
3399.41	0.000717163	0.00488586
3401.75	-0.697876	-0.0202759
3404.09	0.000280762	0.00728638
3406.41	8.23975e-05	0.00488983
3408.75	-0.698059	-0.0202759
3411.09	-0.000112915	0.00729034
3413.41	-0.000109863	0.00489471
3415.75	-0.697479	-0.0202789
3418.09	0.000482178	0.00727905
3420.41	0.000302124	0.00489319
3422.75	-0.698517	-0.0202759
3425.09	0.000567627	0.00727631
3427.41	-0.000363159	0.00489716
3429.75	-0.698517	-0.0202667
3432.09	-0.000457764	0.00727386
3434.41	-0.000274658	0.00489777
3436.75	-0.69873	-0.0202576
3439.09	0.000268555	0.00726257
3441.41	0.000762939	0.00488892
3443.75	-0.697754	-0.0202576
3446.09	0.000656128	0.0072644
3448.41	-0.000393677	0.00489502
3450.75	-0.697632	-0.0202545
3453.09	0.000811768	0.00725525
3455.41	-0.000454712	0.0048996
3457.75	-0.697571	-0.0202423
3460.09	-0.000543213	0.00725616
3462.41	-0.000411987	0.00489868
3464.75	-0.6987	-0.0202362
3467.09	0.000204468	0.007258
3469.41	-0.000402832	0.00489807
3471.75	-0.698822	-0.0202454
3474.09	0.000134277	0.00725159
3476.41	0.00043335	0.00489532
3478.75	-0.697479	-0.0202423
3481.09	0.000527954	0.00724731
3483.41	0.000411987	0.00489594
3485.75	-0.697723	-0.0202362
3488.09	0.000341797	0.00725037
3490.41	6.10352e-06	0.00489624
3492.75	-0.697937	-0.0202362
3495.09	0.000219727	0.00725098
3497.41	-2.74658e-05	0.00490692
3499.75	-0.698059	-0.0202209
3502.09	-0.000115967	0.00724976
3504.41	-0.000521851	0.00490814
3506.75	-0.697632	-0.0202209
3509.09	0.000613403	0.00724365
3511.41	0.000540161	0.00490143
3513.75	-0.698303	-0.0202057
3516.09	-0.000292969	0.00724731
3518.41	0.000778198	0.00490814
3520.75	-0.698212	-0.0202087
3523.09	-1.2207e-05	0.0072464
3525.41	0.000628662	0.00490906
3527.75	-0.697601	-0.0202118
3530.09	0.000350952	0.00723907
3532.41	-0.000134277	0.00491119
3534.75	-0.69873	-0.0202759
3537.09	0.000650024	0.00726532
3539.41	0.000613403	0.00492432
3541.75	-0.698761	-0.0202667
3544.09	-0.000216675	0.00727264
3546.41	0.00067749	0.00491943
3548.75	-0.697784	-0.020285
3551.09	5.18799e-05	0.00726349
3553.41	0.00067749	0.00492249
3555.75	-0.698425	-0.0202606
3558.09	0.00017395	0.00725983
3560.41	-0.000134277	0.0049295
3562.75	-0.698792	-0.0202545
3565.09	0.000241089	0.00725952
3567.41	0.000308228	0.0049292
3569.75	-0.698212	-0.0202576
3572.09	-0.000378418	0.00725861
3574.41	-0.00027771	0.00493805
3576.75	-0.698181	-0.0202759
3579.09	0.000570679	0.0072641
3581.41	0.000723267	0.00493103
3583.75	-0.698608	-0.0202698
3586.09	-0.000314331	0.00727112
3588.41	3.05176e-06	0.00493378
3590.75	-0.698639	-0.0202484
3593.09	0.000195313	0.007258
3595.41	-6.10352e-05	0.00493805
3597.75	-0.697662	-0.0202545
3600.09	-0.000210571	0.00726044
3602.41	-6.10352e-05	0.00493622
3604.75	-0.698059	-0.0202698
3607.09	0.000219727	0.00725983
3609.41	0.0003479	0.00493774
3611.75	-0.697998	-0.0202667
3614.09	0.000689697	0.00725006
3616.41	0.000268555	0.00493805
3618.75	-0.69873	-0.0202515
3621.09	-0.000500488	0.00725769
3623.41	-0.00032959	0.00494476
3625.75	-0.698761	-0.0202515
3628.09	-0.000448608	0.00725525
3630.41	0.000100708	0.00494568
3632.75	-0.697632	-0.0202545
3635.09	-0.000485229	0.00725342
3637.41	0.000765991	0.00493896
3639.75	-0.697754	-0.0202515
3642.09	-0.000421143	0.00724457
3644.41	-0.000341797	0.00494598
3646.75	-0.697784	-0.0202362
3649.09	0.000692749	0.00723816
3651.41	0.000704956	0.00493744
3653.75	-0.6987	-0.0202301
3656.09	-9.15527e-05	0.00723206
3658.41	0.000765991	0.00494019
3660.75	-0.698761	-0.020224
3663.09	0.000762939	0.00722778
3665.41	7.93457e-05	0.00494598
3667.75	-0.698761	-0.0202209
3670.09	-0.000149536	0.00723206
3672.41	0.000601196	0.00493866
3674.75	-0.697906	-0.0202271
3677.09	-0.00043335	0.00722839
3679.41	0.000726318	0.00493835
3681.75	-0.697662	-0.0202148
3684.09	0.000372314	0.00721466
3686.41	-0.000378418	0.00494904
3688.75	-0.697418	-0.0202026
3691.09	-0.000402832	0.00721375
3693.41	0.00065918	0.00493744
3695.75	-0.698364	-0.0202087
3698.09	0.00055542	0.00720795
3700.41	-0.000427246	0.00495056
3702.75	-0.69754	-0.0201874
3705.09	0.000643921	0.00720367
3707.41	-0.000222778	0.00494385
3709.75	-0.697723	-0.0201904
3712.09	-0.000344849	0.00720978
3714.41	-0.00039978	0.00495087
3716.71	-6.10352e-05	0.00360992

File: pulses_5000_to_6000.txt
Time (s)	WE(1).Potential (V)	WE(1).Current (A)
3725.65	-0.697357	-0.0240967
3727.99	0.000753784	0.00678986
3730.31	0.000741577	0.00479614
3732.65	-0.697571	-0.0202728
3734.99	0.000280762	0.00711304
3737.31	0.000592041	0.00489624
3739.65	-0.69812	-0.0202118
3741.99	-0.000445557	0.00715424
3744.31	-0.000134277	0.004921875
3746.65	-0.69751	-0.0201904
3748.99	0.000292969	0.00716248
3751.31	0.000463867	0.00493774
3753.65	-0.698334	-0.020163
3755.99	0.000442505	0.00716461
3758.31	-0.000463867	0.00494751
3760.65	-0.697693	-0.0201721
3762.99	0.000564575	0.00718597
3765.31	0.000527954	0.00494934
3767.65	-0.697571	-0.0201813
3769.99	-0.000268555	0.00719177
3772.31	0.000674438	0.00495331
3774.65	-0.698761	-0.020166
3776.99	2.74658e-05	0.00719147
3779.31	0.0003479	0.00495789
3781.65	-0.697876	-0.020163
3783.99	0.000543213	0.00718292
3786.31	0.000518799	0.00496094
3788.65	-0.698059	-0.0201599
3790.99	-0.000427246	0.00719513
3793.31	-0.000448608	0.00497009
3795.65	-0.698517	-0.020163
3797.99	-0.000210571	0.00719757
3800.31	-0.000286865	0.00497009
3802.65	-0.697662	-0.0201691
3804.99	0.000192261	0.0071936
3807.31	0.000744629	0.00496399
3809.65	-0.698761	-0.020163
3811.99	-0.000509644	0.00719208
3814.31	0.000772095	0.00496582
3816.65	-0.697998	-0.0201599
3818.99	0.000204468	0.00718597
3821.31	-0.000112915	0.00496948
3823.65	-0.697632	-0.0201599
3825.99	4.88281e-05	0.00718384
3828.31	0.000744629	0.00496613
3830.65	-0.698547	-0.0201447
3832.99	-0.000494385	0.00718323
3835.31	-0.000457764	0.0049762
3837.65	-0.698151	-0.0201447
3839.99	0.00071106	0.00717133
3842.31	0.000262451	0.00496979
3844.65	-0.698151	-0.0201385
3846.99	9.15527e-06	0.00717529
3849.31	0.000741577	0.00497009
3851.65	-0.697784	-0.0201508
3853.99	0.000527954	0.00716766
3856.31	-0.000354004	0.00497437
3858.65	-0.698578	-0.0201416
3860.99	0.00065918	0.00715973
3863.31	0.00022583	0.0049762
3865.65	-0.6987	-0.0201569
3867.99	0.000332642	0.00717224
3870.31	0.000762939	0.00497223
3872.65	-0.697571	-0.020163
3874.99	0.000668335	0.0071637
3877.31	0.000753784	0.00496948
3879.65	-0.698547	-0.0201477
3881.99	-0.000531006	0.00717285
3884.31	0.0006073	0.00497009
3886.65	-0.698273	-0.0201599
3888.99	-0.000186157	0.00716461
3891.31	0.000119019	0.00497498
3893.65	-0.697754	-0.0201569
3895.99	0.000592041	0.00716339
3898.31	0.000723267	0.00497101
3900.65	-0.697632	-0.0201508
3902.99	-0.000497437	0.00716248
3905.31	-0.000204468	0.00497742
3907.65	-0.698853	-0.0201324
3909.99	9.15527e-06	0.00716187
3912.31	0.000601196	0.00497314
3914.65	-0.69754	-0.0201324
3916.99	-0.000106812	0.00715027
3919.31	5.79834e-05	0.00497894
3921.65	-0.697693	-0.0201202
3923.99	-0.000292969	0.00715363
3926.31	0.000585937	0.00497467
3928.65	-0.698608	-0.0201202
3930.99	8.8501e-05	0.00714355
3933.31	0.000506592	0.00497803
3935.65	-0.698792	-0.0201294
3937.99	-0.000567627	0.00715179
3940.31	0.00072937	0.00497772
3942.65	-0.698669	-0.0201263
3944.99	0.000137329	0.00714813
3947.31	0.000314331	0.00497742
3949.65	-0.697601	-0.0201324
3951.99	0.000741577	0.00714661
3954.31	-3.66211e-05	0.00498352
3956.65	-0.69754	-0.0201233
3958.99	0.000512695	0.00714539
3961.31	0.000546265	0.00497955
3963.65	-0.697693	-0.0201263
3965.99	-0.000216675	0.00714905
3968.31	0.000588989	0.0049826
3970.65	-0.698242	-0.0201324
3972.99	0.000518799	0.00714294
3975.31	-0.000476074	0.00499359
3977.65	-0.698883	-0.0201172
3979.99	-0.000595093	0.00714417
3982.31	-0.000442505	0.00499268
3984.65	-0.698669	-0.0201111
3986.99	-0.000369263	0.00713623
3989.31	0.000671387	0.00498749
3991.65	-0.69754	-0.020105
3993.99	-0.000210571	0.00713165
3996.31	0.000753784	0.00498444
3998.65	-0.69754	-0.0201019
4000.99	4.88281e-05	0.00713165
4003.31	0.000588989	0.00498688
4005.65	-0.698883	-0.0200836
4007.99	0.000622559	0.00712677
4010.31	-0.000436401	0.00499268
4012.65	-0.698853	-0.0200745
4014.99	0.000494385	0.00712006
4017.31	0.000643921	0.00498962
4019.65	-0.697662	-0.0200836
4021.99	-0.000402832	0.00712433
4024.31	-0.000192261	0.0049942
4026.65	-0.698425	-0.0200684
4028.99	0.000534058	0.007109375
4031.31	0.000750732	0.00498535
4033.65	-0.697662	-0.0200684
4035.99	-0.000457764	0.0071167
4038.31	0.000561523	0.0049884
4040.65	-0.698303	-0.02005
4042.99	-0.000485229	0.00711395
4045.31	-0.000363159	0.00500031
4047.65	-0.698151	-0.02005
4049.99	-0.000323486	0.00710785
4052.31	0.000778198	0.00499268
4054.65	-0.697754	-0.0200592
4056.99	0.000366211	0.0071051
4059.31	0.000860596	0.0049939
4061.65	-0.697937	-0.0200409
4063.99	0.000100708	0.0070993
4066.31	0.000793457	0.00499084
4068.65	-0.697693	-0.0200378
4070.99	0.000723267	0.00709473
4073.31	-0.000259399	0.00499939
4075.65	-0.697601	-0.0200409
4077.99	-0.000201416	0.0070932
4080.31	0.000167847	0.00499146
4082.65	-0.698853	-0.0200317
4084.99	-0.000119019	0.00709381
4087.31	-0.000469971	0.00499969
4089.65	-0.698669	-0.0200256
4091.99	-0.00022583	0.00709198
4094.31	0.00065918	0.00499908
4096.65	-0.698822	-0.0200165
4098.99	-0.000354004	0.0070874
4101.31	-0.000161743	0.00500214
4103.65	-0.698792	-0.0200104
4105.99	-0.000195313	0.0070871
4108.31	-0.000485229	0.00500214
4110.65	-0.698212	-0.0200165
4112.99	0.000650024	0.00707916
4115.31	-0.000485229	0.00500183
4117.65	-0.697632	-0.0200195
4119.99	-0.000372314	0.00707977
4122.31	0.000680542	0.00500092
4124.65	-0.698669	-0.019989
4126.99	3.66211e-05	0.00707764
4129.31	3.05176e-06	0.0050061
4131.65	-0.697723	-0.0200012
4133.99	0.000592041	0.00707458
4136.31	0.000366211	0.00499878
4138.65	-0.697601	-0.0199982
4140.99	-0.0003479	0.00707977
4143.31	-0.000445557	0.00500702
4145.65	-0.698639	-0.0199951
4147.99	-0.000357056	0.00707642
4150.32	0.000793457	0.00500183
4152.66	-0.698273	-0.0200195
4155	0.000546265	0.00707336
4157.32	-0.000112915	0.00501129
4159.66	-0.697571	-0.0200104
4162	0.000280762	0.00707306
4164.32	-0.000476074	0.00500702
4166.66	-0.697968	-0.0200104
4169	-0.000296021	0.00708405
4171.32	-0.000201416	0.00501129
4173.66	-0.698761	-0.0199951
4176	0.000289917	0.00707062
4178.32	-0.000460815	0.00500946
4180.66	-0.698425	-0.019986
4183	-0.000436401	0.00707092
4185.32	0.000494385	0.00500824
4187.66	-0.697998	-0.0199829
4190	0.000323486	0.00705872
4192.32	-0.000314331	0.0050116
4194.66	-0.698151	-0.0199829
4197	-0.000292969	0.00706726
4199.32	0.000714111	0.00500366
4201.66	-0.698822	-0.0199799
4204	-0.000518799	0.00706665
4206.32	3.66211e-05	0.00501221
4208.66	-0.698517	-0.0199799
4211	-0.000485229	0.0070636
4213.32	6.10352e-05	0.00500732
4215.66	-0.6987	-0.0199768
4218	0.000567627	0.00706146
4220.32	0.00045166	0.00500793
4222.66	-0.698547	-0.0199738
4225	0.000497437	0.00705963
4227.32	0.000268555	0.00501495
4229.66	-0.697571	-0.0199921
4232	0.000692749	0.00705719
4234.32	-0.000302124	0.00502075
4236.66	-0.697815	-0.0199951
4239	0.000280762	0.00706146
4241.32	0.000741577	0.00501251
4243.66	-0.6987	-0.0199768
4246	0.00072937	0.00705536
4248.32	-0.000372314	0.00501801
4250.66	-0.698456	-0.0199707
4253	-0.000344849	0.00706299
4255.32	0.00071106	0.00501648
4257.66	-0.698639	-0.0199677
4260	0.000241089	0.007052
4262.32	0.000256348	0.00502075
4264.66	-0.698761	-0.0199554
4267	0.000363159	0.00705139
4269.32	0.000408936	0.0050174
4271.66	-0.697906	-0.0199524
4274	0.000714111	0.00704865
4276.32	0.000253296	0.0050238
4278.66	-0.698395	-0.0199585
4281	0.000836182	0.00704865
4283.32	-0.000384521	0.00502869
4285.66	-0.698303	-0.0199402
4288	-0.000595093	0.007052
4290.32	0.000442505	0.00502167
4292.66	-0.698395	-0.0199432
4295	0.000152588	0.00704956
4297.32	0.000756836	0.00502502
4299.66	-0.698456	-0.019931
4302	-0.000546265	0.00704651
4304.32	0.000662231	0.00502869
4306.66	-0.698669	-0.0199432
4309	0.000656128	0.00704529
4311.32	-0.000457764	0.00503632
4313.66	-0.697906	-0.0199646
4316	-0.000482178	0.0070517
4318.32	0.000540161	0.00503326
4320.66	-0.69754	-0.0199554
4323	0.000531006	0.00704346
4325.32	-0.000531006	0.00503448
4327.66	-0.69873	-0.0199432
4330	-0.000482178	0.0070462
4332.32	0.000799561	0.0050293
4334.66	-0.698669	-0.0199402
4337	0.000405884	0.00704132
4339.32	-6.40869e-05	0.00503113
4341.66	-0.698212	-0.0199402
4344	-0.000262451	0.00704193
4346.32	0.000689697	0.00502747
4348.66	-0.698151	-0.0199371
4351	-0.000253296	0.00704071
4353.32	-0.000372314	0.00503784
4355.66	-0.697815	-0.0199432
4358	-0.000518799	0.00703613
4360.32	0.000192261	0.0050354
4362.66	-0.698761	-0.0199219
4365	0.000683594	0.00702576
4367.32	-7.62939e-05	0.00503723
4369.66	-0.698792	-0.0199188
4372	0.000704956	0.00702332
4374.32	5.79834e-05	0.00503326
4376.66	-0.698273	-0.0199158
4379	0.000509644	0.0070166
4381.32	0.000473022	0.00503479
4383.66	-0.698425	-0.0199097
4386	0.000567627	0.00701172
4388.32	-0.000195313	0.00503265
4390.66	-0.697968	-0.0198975
4393	0.000704956	0.00700867
4395.32	0.000247192	0.00503479
4397.66	-0.697662	-0.0198975
4400	3.96729e-05	0.00700775
4402.32	5.18799e-05	0.00503143
4404.66	-0.698181	-0.0198883
4407	0.000561523	0.00700195
4409.32	-0.000259399	0.00503723
4411.66	-0.698853	-0.0198883
4414	0.000262451	0.00700836
4416.32	0.000222778	0.0050354
4418.66	-0.698517	-0.0198914
4421	0.000421143	0.00700745
4423.32	-0.000448608	0.00503998
4425.62	0.000830078	0.00383789