Folder: electrochromicfilms/Edgar/20240605/20240605/electrodeposition_pulsed_potential_20240605_B (part 2)

File: pulses_2000_to_3000.txt
Time (s)	WE(1).Potential (V)	WE(1).Current (A)
1599.17	-0.698151	-0.0233917
1601.51	-0.000671387	0.00787964
1603.83	9.46045e-05	0.00404785
1606.17	-0.697815	-0.0209717
1608.51	0.000445557	0.00802917
1610.83	0.000799561	0.00412781
1613.17	-0.698761	-0.0209259
1615.51	-1.52588e-05	0.00805054
1617.83	9.15527e-06	0.00416473
1620.17	-0.697693	-0.0209137
1622.51	-0.00072937	0.00807495
1624.83	0.000549316	0.00418121
1627.17	-0.698456	-0.0208954
1629.51	0.000247192	0.00809021
1631.83	0.000521851	0.00419678
1634.17	-0.697662	-0.0209015
1636.51	-0.000463867	0.00810242
1638.83	-0.000411987	0.00421783
1641.17	-0.698669	-0.0208923
1643.51	-0.000256348	0.00810852
1645.83	0.000274658	0.00422241
1648.17	-0.697632	-0.0208893
1650.51	-0.000646973	0.00808716
1652.83	0.000421143	0.00422882
1655.17	-0.697662	-0.020874
1657.51	0.000680542	0.00808411
1659.83	0.000540161	0.00423798
1662.17	-0.698761	-0.0208649
1664.51	0.000564575	0.008078
1666.83	-0.000430298	0.00424988
1669.17	-0.69754	-0.0208618
1671.51	0.000265503	0.00808411
1673.83	0.000762939	0.00424896
1676.17	-0.6987	-0.0208618
1678.51	-0.000424194	0.00808105
1680.83	-0.000418091	0.00426178
1683.17	-0.697937	-0.0208679
1685.51	-0.000531006	0.00807495
1687.83	0.000662231	0.00425873
1690.17	-0.69754	-0.0208588
1692.51	-0.000378418	0.0080719
1694.83	-0.0003479	0.00427002
1697.17	-0.698822	-0.0208954
1699.51	-0.000448608	0.00807495
1701.83	-0.000100708	0.00427094
1704.17	-0.697571	-0.0208893
1706.51	0.000521851	0.0080658
1708.83	-0.000494385	0.00427917
1711.17	-0.698456	-0.0208649
1713.51	0.000570679	0.0080658
1715.83	0.000735474	0.00427612
1718.17	-0.698151	-0.020871
1720.51	-0.000534058	0.00805969
1722.83	-0.000219727	0.00428467
1725.17	-0.697479	-0.0208893
1727.51	0.000424194	0.00805664
1729.83	0.000765991	0.00428497
1732.17	-0.698059	-0.020871
1734.51	0.000485229	0.00804443
1736.83	-0.000405884	0.00429535
1739.17	-0.698059	-0.0208862
1741.51	-1.2207e-05	0.00804138
1743.83	-0.000466919	0.00430573
1746.17	-0.69812	-0.0209229
1748.51	-0.000469971	0.00806274
1750.83	0.000732422	0.00430542
1753.17	-0.698059	-0.0209137
1755.51	-0.000164795	0.00805359
1757.83	0.000402832	0.00431244
1760.17	-0.697815	-0.0209229
1762.51	-0.000540161	0.00805664
1764.83	0.000784302	0.00431305
1767.17	-0.698761	-0.0209015
1769.51	0.000674438	0.00805359
1771.83	-3.35693e-05	0.00432556
1774.17	-0.69754	-0.0209045
1776.51	6.71387e-05	0.00805054
1778.83	-0.000473022	0.00433136
1781.17	-0.698303	-0.0208893
1783.51	-0.000326538	0.00805664
1785.83	-0.000238037	0.0043396
1788.17	-0.698273	-0.0208954
1790.51	0.00055542	0.00803833
1792.83	-0.000427246	0.00434418
1795.17	-0.698578	-0.0208923
1797.51	0.00057373	0.00804138
1799.83	0.000631714	0.00434052
1802.17	-0.698029	-0.0208954
1804.51	-0.000646973	0.00803833
1806.83	-0.000177002	0.00435059
1809.17	-0.698578	-0.0208771
1811.51	-0.000720215	0.00802917
1813.83	0.000515747	0.0043515
1816.17	-0.698547	-0.020874
1818.51	0.000335693	0.00801392
1820.83	0.000476074	0.00435455
1823.17	-0.698547	-0.020874
1825.51	0.000524902	0.00801392
1827.83	0.000863647	0.00435944
1830.17	-0.697876	-0.020874
1832.51	-0.000509644	0.00801086
1834.83	0.000640869	0.00436768
1837.17	-0.698029	-0.0208679
1839.51	-0.000653076	0.00802002
1841.83	0.000332642	0.00437469
1844.17	-0.697632	-0.0208679
1846.51	-0.000445557	0.00800476
1848.83	-0.000323486	0.00438202
1851.17	-0.697815	-0.0208679
1853.51	-0.000665283	0.00800171
1855.83	0.000372314	0.00437897
1858.17	-0.697449	-0.0208557
1860.51	0.000656128	0.00799255
1862.83	-0.000341797	0.00439056
1865.17	-0.69873	-0.0208466
1867.51	0.00050354	0.00798035
1869.83	0.000341797	0.00438324
1872.17	-0.69873	-0.0208374
1874.51	0.000592041	0.00797729
1876.83	-0.000421143	0.00439758
1879.17	-0.6987	-0.0208344
1881.51	0.000570679	0.00797424
1883.83	0.000772095	0.00439606
1886.17	-0.698517	-0.0208344
1888.51	0.000204468	0.0079834
1890.83	-0.000463867	0.0044101
1893.17	-0.697449	-0.0208344
1895.51	-0.000762939	0.00797424
1897.83	0.000769043	0.00440582
1900.17	-0.698059	-0.0208191
1902.51	-0.000253296	0.00796204
1904.83	-0.000521851	0.00441498
1907.17	-0.697754	-0.020813
1909.51	0.000466919	0.00795593
1911.83	-0.00010376	0.00442017
1914.17	-0.698181	-0.0207947
1916.51	0.000354004	0.00794373
1918.83	-0.000369263	0.00442139
1921.17	-0.6987	-0.0207886
1923.51	0.000592041	0.00793762
1925.83	0.000616455	0.00441986
1928.17	-0.697601	-0.0207886
1930.51	-0.000445557	0.00793152
1932.83	0.000119019	0.00442596
1935.17	-0.698212	-0.0207855
1937.51	-0.000558472	0.00793152
1939.83	0.000723267	0.00442413
1942.17	-0.69873	-0.0208252
1944.51	-0.000445557	0.00787048
1946.83	0.000561523	0.00437012
1949.17	-0.698822	-0.0208221
1951.51	-0.000634766	0.00786743
1953.83	-0.00015564	0.00438599
1956.17	-0.698181	-0.0207855
1958.51	-0.000366211	0.00787964
1960.83	0.000558472	0.0043985
1963.17	-0.698029	-0.0207794
1965.51	0.000506592	0.00787659
1967.83	0.000772095	0.00440643
1970.17	-0.69873	-0.0207642
1972.51	0.000543213	0.00786743
1974.83	0.000744629	0.00441498
1977.17	-0.697693	-0.0207611
1979.51	0.000402832	0.00787048
1981.83	2.44141e-05	0.00442657
1984.17	-0.697906	-0.0207458
1986.51	-0.000338745	0.00786743
1988.83	-0.000411987	0.00443115
1991.17	-0.697357	-0.0207458
1993.51	-0.000683594	0.00785522
1995.83	-1.83105e-05	0.00443451
1998.17	-0.698212	-0.0207489
2000.51	-6.40869e-05	0.00785522
2002.83	0.000714111	0.00443481
2005.17	-0.697876	-0.0207397
2007.51	-0.000442505	0.00783997
2009.83	0.000692749	0.00443665
2012.17	-0.698212	-0.0207275
2014.51	-3.96729e-05	0.00783081
2016.83	-0.00045166	0.00444946
2019.17	-0.698029	-0.0207245
2021.51	-0.000183105	0.00783386
2023.83	0.000759888	0.00444672
2026.17	-0.698212	-0.0207336
2028.51	0.000164795	0.00783081
2030.83	-0.000396729	0.00445984
2033.17	-0.697723	-0.0207153
2035.51	-1.52588e-05	0.0078186
2037.83	3.96729e-05	0.00446167
2040.17	-0.698608	-0.0207214
2042.51	0.000231934	0.00784302
2044.83	0.000778198	0.00445892
2047.17	-0.69812	-0.0207123
2049.51	-0.000192261	0.00783691
2051.83	0.000860596	0.00446472
2054.17	-0.698059	-0.0207184
2056.51	-0.000378418	0.00782471
2058.83	-0.000393677	0.00447205
2061.17	-0.698669	-0.0207001
2063.51	-0.000595093	0.00782471
2065.83	0.00071106	0.00447235
2068.17	-0.698029	-0.0207123
2070.51	0.000549316	0.00780945
2072.83	-0.000241089	0.00448364
2075.17	-0.698669	-0.020755
2077.51	0.000527954	0.00784912
2079.83	-0.000411987	0.00448944
2082.17	-0.698669	-0.0207428
2084.51	0.000570679	0.00783691
2086.83	0.000750732	0.00448395
2089.17	-0.697723	-0.0207489
2091.51	-0.000717163	0.00783691
2093.83	-0.000195313	0.0044931
2096.17	-0.698547	-0.0207184
2098.51	-0.000228882	0.00783691
2100.83	0.000125122	0.00449402
2103.17	-0.698242	-0.0207123
2105.51	-0.000640869	0.00782471
2107.83	0.000787354	0.00450043
2110.17	-0.697968	-0.0207428
2112.51	-0.000494385	0.00782776
2114.83	-0.000326538	0.00451019
2117.17	-0.698639	-0.0207275
2119.51	-0.000631714	0.00782471
2121.83	-0.000427246	0.00451385
2124.17	-0.698425	-0.0207184
2126.51	-0.000610352	0.00782166
2128.83	-0.000363159	0.0045166
2131.17	-0.69812	-0.0207275
2133.51	-0.000631714	0.00782166
2135.83	-9.76562e-05	0.00452148
2138.17	-0.697998	-0.0207123
2140.51	0.000524902	0.0078125
2142.83	-3.05176e-05	0.00452271
2145.17	-0.698547	-0.0207031
2147.51	0.000308228	0.00780029
2149.83	0.000790405	0.00452087
2152.17	-0.697937	-0.020697
2154.51	-0.000537109	0.0078064
2156.83	0.000201416	0.00452515
2159.17	-0.697571	-0.0207092
2161.51	-0.000723267	0.00779114
2163.83	-0.000430298	0.00453583
2166.17	-0.697998	-0.0207001
2168.51	-0.000134277	0.00778809
2170.83	-0.000488281	0.00453857
2173.17	-0.697693	-0.0206848
2175.51	0.000524902	0.00778503
2177.83	-0.000378418	0.00454254
2180.17	-0.697815	-0.0206726
2182.51	-0.000427246	0.00778809
2184.83	0.000177002	0.00454315
2187.17	-0.697571	-0.0207092
2189.51	0.000524902	0.00777588
2191.83	0.000256348	0.0045459
2194.17	-0.697662	-0.0207062
2196.51	2.44141e-05	0.00777283
2198.83	6.10352e-06	0.00454895
2201.17	-0.698639	-0.0207031
2203.51	0.000164795	0.00779419
2205.83	-0.000149536	0.00455719
2208.17	-0.6987	-0.0207214
2210.51	-0.000695801	0.00777893
2212.83	-0.000427246	0.00455994
2215.17	-0.697876	-0.0207214
2217.51	3.96729e-05	0.00778503
2219.83	-0.000250244	0.00456787
2222.17	-0.698181	-0.0207092
2224.51	0.000592041	0.00778198
2226.83	0.000827026	0.00456024
2229.17	-0.697876	-0.0207184
2231.52	-0.000643921	0.00777893
2233.84	-0.000213623	0.00457428
2236.18	-0.698639	-0.0207123
2238.52	-0.000631714	0.00776978
2240.84	-0.000527954	0.00457458
2243.18	-0.698334	-0.0207184
2245.52	-0.00055542	0.00778503
2247.84	-0.000396729	0.0045813
2250.18	-0.697571	-0.0207397
2252.52	-0.000637817	0.00777893
2254.84	0.000463867	0.0045752
2257.18	-0.698151	-0.0207428
2259.52	0.000238037	0.00776367
2261.84	-0.000350952	0.00458771
2264.18	-0.697937	-0.0207367
2266.52	-0.000643921	0.00776978
2268.84	0.000604248	0.00458527
2271.18	-0.698669	-0.0207306
2273.52	0.000387573	0.00776672
2275.84	0.000259399	0.00458771
2278.18	-0.697937	-0.0207458
2280.52	-0.000482178	0.00776062
2282.84	-0.000427246	0.00459442
2285.18	-0.697937	-0.0207336
2287.52	0.000195313	0.00775452
2289.84	0.000283813	0.00458832
2292.18	-0.698517	-0.0207428
2294.52	0.000546265	0.00775757
2296.84	-0.000320435	0.00460144
2299.14	6.10352e-06	0.00285522

File: pulses_3000_to_4000.txt
Time (s)	WE(1).Potential (V)	WE(1).Current (A)
2308	-0.697876	-0.023877
2310.34	-0.000469971	0.00748322
2312.66	0.000726318	0.00446442
2315	-0.6987	-0.0207947
2317.34	0.000601196	0.00766602
2319.66	-0.0003479	0.00454834
2322	-0.698608	-0.0207489
2324.34	-0.000747681	0.00769043
2326.66	-0.000231934	0.00457458
2329	-0.698608	-0.0207214
2331.34	-6.71387e-05	0.00769348
2333.66	0.00057373	0.00458557
2336	-0.69751	-0.0207123
2338.34	0.000344849	0.00769653
2340.66	7.01904e-05	0.00459106
2343	-0.698578	-0.0207001
2345.34	-0.000143433	0.00771484
2347.66	-0.000372314	0.00460907
2350	-0.698669	-0.0206818
2352.34	-8.8501e-05	0.00770874
2354.66	0.000775146	0.00460541
2357	-0.698669	-0.0206757
2359.34	0.000247192	0.00771179
2361.66	-0.000375366	0.00461884
2364	-0.698639	-0.0206665
2366.34	-0.000637817	0.00770569
2368.66	0.00017395	0.00461395
2371	-0.697632	-0.0206757
2373.34	-0.000592041	0.00769348
2375.66	0.000732422	0.00461792
2378	-0.697571	-0.0206665
2380.34	-0.000701904	0.00769348
2382.66	0.000152588	0.00462402
2385	-0.698578	-0.0206696
2387.34	-0.000482178	0.00769958
2389.66	0.000619507	0.00462067
2392	-0.697479	-0.0206696
2394.34	-0.000521851	0.00769653
2396.66	-0.000344849	0.00463409
2399	-0.697601	-0.0206665
2401.34	-0.000643921	0.00768433
2403.66	0.000753784	0.00462738
2406	-0.698242	-0.0206635
2408.34	-0.000439453	0.00767517
2410.66	-0.00032959	0.0046347
2413	-0.697662	-0.0206573
2415.34	0.000247192	0.00767517
2417.66	0.00078125	0.00462646
2420	-0.697784	-0.0206482
2422.34	-0.00067749	0.00766296
2424.66	0.000317383	0.00462769
2427	-0.698761	-0.020636
2429.34	0.00017395	0.00765686
2431.66	0.000512695	0.00463013
2434	-0.698822	-0.020639
2436.34	-0.000268555	0.00766296
2438.66	-0.000442505	0.00463562
2441	-0.698578	-0.0206207
2443.34	0.000112915	0.00764465
2445.66	0.000698853	0.00462952
2448	-0.6987	-0.0206116
2450.34	0.000213623	0.00765076
2452.66	6.10352e-05	0.00463287
2455	-0.698456	-0.0205994
2457.34	-0.000650024	0.00762939
2459.66	0.000708008	0.00463226
2462	-0.698547	-0.0205811
2464.34	0.000518799	0.00762329
2466.66	0.000732422	0.00463257
2469	-0.69873	-0.0205841
2471.34	-0.00057373	0.00762939
2473.66	-0.000222778	0.00464386
2476	-0.698639	-0.020578
2478.34	0.000579834	0.00761719
2480.66	0.000732422	0.00463684
2483	-0.697784	-0.0205627
2485.34	-0.000683594	0.00761719
2487.66	-0.000228882	0.00464813
2490	-0.69751	-0.0205566
2492.34	-0.000646973	0.00759888
2494.66	0.000161743	0.004646
2497	-0.698456	-0.0205444
2499.34	0.000164795	0.00759888
2501.66	0.000274658	0.00464691
2504	-0.698151	-0.0205353
2506.34	-0.000601196	0.00760193
2508.66	-0.000335693	0.00465027
2511	-0.698059	-0.0205444
2513.34	0.000527954	0.00757751
2515.66	-0.000390625	0.00463715
2518	-0.697571	-0.0205811
2520.34	3.05176e-06	0.00758667
2522.66	3.05176e-05	0.00464325
2525	-0.698608	-0.020575
2527.34	3.35693e-05	0.00758667
2529.66	-0.000430298	0.00464935
2532	-0.69754	-0.0205658
2534.34	0.000582886	0.00757751
2536.66	-5.49316e-05	0.00464661
2539	-0.697937	-0.0206146
2541.34	-0.000616455	0.00761414
2543.66	8.54492e-05	0.00466156
2546	-0.698547	-0.0206055
2548.34	-0.000616455	0.00760803
2550.66	-8.8501e-05	0.00466583
2553	-0.69754	-0.0206177
2555.34	0.000637817	0.00760498
2557.66	9.15527e-06	0.0046637
2560	-0.697479	-0.0206055
2562.34	0.000515747	0.00759277
2564.66	-0.000112915	0.00467743
2567	-0.697815	-0.0205902
2569.34	-0.00038147	0.00759888
2571.66	0.000811768	0.0046701
2574	-0.697601	-0.0205933
2576.34	-0.000112915	0.00760498
2578.66	-9.46045e-05	0.00468414
2581	-0.698578	-0.0205811
2583.34	0.000198364	0.00759888
2585.66	0.000650024	0.0046759
2588	-0.6987	-0.0205719
2590.34	-5.18799e-05	0.00758057
2592.66	-0.000228882	0.00468597
2595	-0.698425	-0.0205597
2597.34	-7.62939e-05	0.00758972
2599.66	0.000546265	0.00468292
2602	-0.69754	-0.0205627
2604.34	-0.00057373	0.00758057
2606.66	0.000366211	0.00468689
2609	-0.6987	-0.0205475
2611.34	-0.000741577	0.00756226
2613.66	0.000570679	0.0046817
2616	-0.698151	-0.0205292
2618.34	-0.000653076	0.00756226
2620.66	0.000723267	0.00468445
2623	-0.69812	-0.02052
2625.34	0.000125122	0.00755615
2627.66	0.000473022	0.00469391
2630	-0.697845	-0.02052
2632.34	-0.000143433	0.00755005
2634.66	-0.000427246	0.0046991
2637	-0.698761	-0.020517
2639.34	0.000161743	0.0075531
2641.66	0.000375366	0.00470276
2644	-0.698364	-0.0205353
2646.34	-0.000100708	0.007547
2648.66	0.000665283	0.0046991
2651	-0.697571	-0.0205353
2653.34	0.00022583	0.00754089
2655.66	0.000665283	0.00470001
2658	-0.698578	-0.0205261
2660.34	-3.05176e-06	0.00755615
2662.66	5.79834e-05	0.00470459
2665	-0.698669	-0.0205139
2667.34	0.000396729	0.00753784
2669.66	-0.000335693	0.00471436
2672	-0.698364	-0.0205231
2674.34	0.000183105	0.00753784
2676.66	0.000369263	0.00471039
2679	-0.69809	-0.0205078
2681.34	0.000436401	0.00753174
2683.66	0.000772095	0.00470978
2686	-0.698029	-0.0204956
2688.34	-0.000598145	0.00753479
2690.66	3.05176e-06	0.00471985
2693	-0.697601	-0.0204987
2695.34	0.000491333	0.00752563
2697.66	-0.000314331	0.0047168
2700	-0.698029	-0.0204834
2702.34	-0.000210571	0.00752563
2704.66	0.000531006	0.00471985
2707	-0.698761	-0.0204712
2709.34	-0.000595093	0.00751648
2711.66	-1.52588e-05	0.00472076
2714	-0.698639	-0.0205231
2716.34	0.000570679	0.00753479
2718.66	0.000244141	0.00471497
2721	-0.697693	-0.0205231
2723.34	0.000164795	0.00753479
2725.66	0.000289917	0.00471954
2728	-0.698578	-0.020517
2730.34	-0.000219727	0.00754089
2732.66	0.000723267	0.00472076
2735	-0.697876	-0.02052
2737.34	-0.000512695	0.00753784
2739.66	-8.8501e-05	0.00473206
2742	-0.698456	-0.0205139
2744.34	0.00015564	0.00751953
2746.66	0.000662231	0.00472717
2749	-0.698517	-0.0205078
2751.34	0.000683594	0.00752563
2753.66	0.000527954	0.00472717
2756	-0.69754	-0.0205139
2758.34	0.000161743	0.00751648
2760.66	0.000650024	0.00473145
2763	-0.69873	-0.0205139
2765.34	-0.000485229	0.00752869
2767.66	0.000671387	0.00473602
2770	-0.69873	-0.0205078
2772.34	0.000299072	0.00750732
2774.66	0.000860596	0.00473297
2777	-0.697601	-0.0204956
2779.34	-1.2207e-05	0.00750732
2781.66	4.88281e-05	0.0047403
2784	-0.6987	-0.0204895
2786.34	-8.8501e-05	0.00751038
2788.66	-0.000292969	0.00474609
2791	-0.698669	-0.0205048
2793.34	-0.000524902	0.00750732
2795.66	-0.000454712	0.0047464
2798	-0.697723	-0.0205048
2800.34	-0.000497437	0.00750458
2802.66	-0.000418091	0.00474976
2805	-0.69873	-0.0204865
2807.34	0.000436401	0.00750732
2809.66	0.00045166	0.00475006
2812	-0.698792	-0.0204865
2814.34	0.000534058	0.00750122
2816.66	-0.000424194	0.00475555
2819	-0.698761	-0.0204865
2821.34	0.000427246	0.00749512
2823.66	0.000238037	0.00475037
2826	-0.697601	-0.0204865
2828.34	-0.000436401	0.00749237
2830.66	0.000183105	0.0047522
2833	-0.697479	-0.0204803
2835.34	0.000192261	0.00748322
2837.66	0.000646973	0.00475952
2840	-0.697754	-0.0204773
2842.34	7.93457e-05	0.00748138
2844.66	-0.000494385	0.0047641
2847	-0.6987	-0.020462
2849.34	-0.000445557	0.00748749
2851.66	-9.15527e-06	0.00476593
2854	-0.698303	-0.0204529
2856.34	-0.000515747	0.00748077
2858.66	0.000335693	0.00476044
2861	-0.697662	-0.0204498
2863.34	-0.000439453	0.00747925
2865.66	0.000161743	0.0047641
2868	-0.697723	-0.0204559
2870.34	-0.000177002	0.00747498
2872.66	0.000256348	0.00477264
2875	-0.698029	-0.020462
2877.34	-0.000561523	0.00746002
2879.66	0.000708008	0.0047525
2882	-0.698151	-0.0204559
2884.34	-0.000579834	0.00745667
2886.66	0.000772095	0.00475983
2889	-0.698853	-0.0204407
2891.34	-0.000326538	0.00745087
2893.66	-0.000411987	0.00477478
2896	-0.698334	-0.0204346
2898.34	-0.000460815	0.00745483
2900.66	-0.000180054	0.00477081
2903	-0.698792	-0.0204315
2905.34	-0.000518799	0.00745667
2907.66	0.000100708	0.00478027
2910	-0.698425	-0.0204376
2912.34	-0.000100708	0.00745117
2914.66	6.40869e-05	0.00478546
2917	-0.697601	-0.0204254
2919.34	0.000646973	0.00744507
2921.66	0.000238037	0.00478363
2924	-0.69873	-0.0204132
2926.34	0.000558472	0.00744232
2928.66	0.000762939	0.00478302
2931	-0.69873	-0.0204132
2933.34	0.000482178	0.00743774
2935.66	-0.000314331	0.00479248
2938	-0.698639	-0.0203979
2940.34	-0.000408936	0.00744385
2942.66	0.000302124	0.00479187
2945	-0.697571	-0.0204102
2947.34	0.000152588	0.00743988
2949.66	-0.000457764	0.00479431
2952	-0.698669	-0.0204041
2954.34	-6.40869e-05	0.00743561
2956.66	0.000106812	0.00479309
2959	-0.698669	-0.0203918
2961.34	0.000668335	0.00742981
2963.66	-0.000415039	0.00480042
2966	-0.698608	-0.0203888
2968.34	-0.000158691	0.00743317
2970.66	0.000790405	0.00479279
2973	-0.698669	-0.0203827
2975.34	-0.000439453	0.00742859
2977.66	-0.00039978	0.00480255
2980	-0.697632	-0.0203888
2982.34	-0.000390625	0.00741943
2984.66	0.000210571	0.00479248
2987	-0.69754	-0.0203735
2989.34	0.000515747	0.00741577
2991.66	0.000408936	0.00480133
2994	-0.698792	-0.0203674
2996.34	-0.000491333	0.00741547
2998.66	0.000469971	0.00479736
3001	-0.697723	-0.0203644
3003.34	7.93457e-05	0.00741699
3005.66	-8.8501e-05	0.00480621
3007.96	-1.52588e-05	0.00330078