Folder: electrochromicfilms/Edgar/20240605/20240605/electrodeposition_pulsed_potential_20240605_A

File: pulses_0_to_1000.txt
Time (s)	WE(1).Potential (V)	WE(1).Current (A)
181.681	-0.499359	-0.00259247
184.041	0.604004	8.39233e-06
186.361	0.60498	-3.66211e-06
188.701	-0.499786	-0.00196136
191.061	0.605316	-2.89917e-06
193.381	0.605133	-4.48608e-06
195.721	-0.499664	-0.0019104
198.081	0.605103	-2.38037e-06
200.401	0.604401	1.06812e-06
202.741	-0.500061	-0.00190765
205.101	0.604065	4.97437e-06
207.421	0.604462	1.49536e-06
209.781	-0.000326538	1.44653e-05
212.121	0.60495	-9.46045e-07
214.441	0.605469	-6.50024e-06
216.801	-7.01904e-05	-4.79431e-05
219.141	0.604431	3.54004e-06
221.461	0.604126	2.74658e-06
223.821	-0.00012207	-5.74341e-05
226.161	0.604736	-1.61743e-06
228.481	0.605316	-5.58472e-06
230.841	0.000863647	-6.82373e-05
233.181	0.604553	3.05176e-08
235.501	0.605316	-6.073e-06
237.881	0.605408	3.45459e-05
240.201	0.604218	3.60107e-06
242.521	0.604492	3.96729e-07
244.901	0.604553	1.59607e-05
247.221	0.604645	-4.27246e-07
249.541	0.605194	-5.79834e-06
251.921	0.605042	7.41577e-06
254.241	0.605347	-4.54712e-06
256.581	-0.49884	-0.00330475
258.941	0.604187	9.12476e-06
261.261	0.605255	-4.66919e-06
263.601	-0.499878	-0.00252289
265.961	0.605225	-3.05176e-08
268.281	0.604309	2.44141e-06
270.621	-0.499817	-0.00236359
272.981	0.605133	3.35693e-07
275.301	0.605377	-6.65283e-06
277.641	-0.499878	-0.00230194
280.001	0.604462	1.2207e-06
282.321	0.604095	4.02832e-06
284.681	-0.000112915	0.000848083
287.021	0.605316	-2.86865e-06
289.341	0.604248	3.2959e-06
291.701	-0.000463867	-2.04468e-06
294.041	0.604706	1.2207e-06
296.361	0.604736	-1.43433e-06
298.721	0.000439453	-7.87354e-05
301.061	0.604919	-3.35693e-07
303.381	0.604919	-2.99072e-06
305.741	0.000463867	-9.2865e-05
308.081	0.605194	-4.57764e-06
310.401	0.605164	-6.01196e-06
312.781	0.604614	6.57654e-05
315.101	0.605408	-3.60107e-06
317.421	0.604187	1.64795e-06
319.801	0.604767	2.13318e-05
322.121	0.604218	3.20435e-06
324.441	0.60437	9.46045e-07
326.821	0.60498	1.23291e-05
329.141	0.604126	4.76074e-06
331.481	-0.499939	-0.0052655
333.841	0.605194	5.82886e-06
336.161	0.604828	-3.05176e-06
338.501	-0.499084	-0.0032785
340.861	0.604095	1.15662e-05
343.181	0.604065	3.35693e-06
345.521	-0.498688	-0.00282532
347.881	0.604126	8.91113e-06
350.201	0.604919	-1.80054e-06
352.541	-0.498932	-0.00267181
354.901	0.605316	-2.44141e-07
357.221	0.605408	-4.82178e-06
359.581	0.000790405	0.00254303
361.921	0.603973	8.36182e-06
364.241	0.604645	-1.83105e-07
366.601	0.000402832	0.000348114
368.941	0.60498	8.54492e-07
371.261	0.605164	-4.15039e-06
373.621	0.000500488	-2.00195e-05
375.961	0.604919	9.15527e-07
378.281	0.604156	1.64795e-06
380.641	5.79834e-05	-9.12476e-05
382.981	0.605011	-2.04468e-06
385.301	0.605225	-4.18091e-06
387.681	0.604248	9.39026e-05
390.001	0.604065	4.73022e-06
392.321	0.604584	-1.00708e-06
394.701	0.605286	2.88086e-05
397.021	0.604034	5.15747e-06
399.341	0.604675	-2.53296e-06
401.721	0.605316	1.49536e-05
404.041	0.603973	6.073e-06
406.381	-0.499786	-0.00743591
408.741	0.604675	1.52588e-05
411.061	0.605011	-9.76562e-07
413.401	-0.499969	-0.00431335
415.761	0.605286	4.36401e-06
418.081	0.604279	3.66211e-06
420.421	-0.499573	-0.00340515
422.781	0.604492	7.41577e-06
425.101	0.605194	-4.48608e-06
427.441	-0.499969	-0.00307037
429.801	0.605347	1.12915e-06
432.121	0.60437	1.31226e-06
434.481	0.000656128	0.00410889
436.821	0.604431	6.89697e-06
439.141	0.605347	-4.66919e-06
441.501	0.000793457	0.00105774
443.841	0.604462	6.22559e-06
446.161	0.604065	3.66211e-06
448.521	0.000231934	0.00022345
450.861	0.604401	5.37109e-06
453.181	0.605408	-5.7373e-06
455.541	0.000613403	-2.3407e-05
457.881	0.604248	6.10352e-06
460.201	0.60495	-1.77002e-06
462.581	0.603973	0.000123566
464.901	0.604095	6.2561e-06
467.221	0.604034	4.48608e-06
469.601	0.60495	4.20837e-05
471.921	0.605347	-3.44849e-06
474.241	0.605286	-6.13403e-06
476.621	0.604065	2.74048e-05
478.941	0.604889	-7.32422e-07
481.281	-0.499786	-0.00935059
483.641	0.60437	1.79749e-05
485.961	0.604462	2.47192e-06
488.301	-0.499969	-0.0055069
490.661	0.604187	1.49231e-05
492.981	0.604034	4.73022e-06
495.321	-0.499756	-0.00411133
497.681	0.605133	7.04956e-06
500.001	0.605377	-3.41797e-06
502.341	-0.498932	-0.00354279
504.701	0.604706	6.83594e-06
507.021	0.604248	3.50952e-06
509.381	0.000149536	0.0052063
511.721	0.604889	5.61523e-06
514.042	0.604919	-1.40381e-06
516.402	-0.000292969	0.00187408
518.742	0.605255	9.76562e-07
521.062	0.604034	5.18799e-06
523.422	0.0003479	0.000621338
525.762	0.604492	6.28662e-06
528.082	0.605377	-4.57764e-06
530.442	0.000823975	0.000147217
532.782	0.605347	-2.31934e-06
535.102	0.604736	7.01904e-07
537.482	0.60495	0.000162598
539.802	0.604767	2.56348e-06
542.122	0.605225	-3.9978e-06
544.502	0.604614	5.31616e-05
546.822	0.604889	4.27246e-07
549.142	0.605377	-4.66919e-06
551.522	0.604889	2.45972e-05
553.842	0.605194	-1.95313e-06
556.182	-0.498657	-0.0109375
558.542	0.605316	1.5564e-05
560.862	0.604584	3.54004e-06
563.202	-0.499634	-0.0066687
565.562	0.604614	1.24207e-05
567.882	0.604828	-5.79834e-07
570.222	-0.499054	-0.00486572
572.582	0.605103	7.99561e-06
574.902	0.604187	4.63867e-06
577.242	-0.499634	-0.00402985
579.602	0.605011	5.92041e-06
581.922	0.604065	5.5542e-06
584.282	-7.01904e-05	0.00591919
586.622	0.604675	6.16455e-06
588.942	0.605133	-1.40381e-06
591.302	-0.000115967	0.0025943
593.642	0.605133	2.83813e-06
595.962	0.605072	-1.12915e-06
598.322	0.000814819	0.00106049
600.662	0.605072	1.52588e-06
602.982	0.604187	5.24902e-06
605.342	-0.00027771	0.00040332
607.682	0.604187	6.46973e-06
610.002	0.605316	-4.45557e-06
612.382	0.604919	0.000234619
614.702	0.60434	4.5166e-06
617.022	0.605103	-2.13623e-06
619.402	0.605225	5.58167e-05
621.722	0.604309	4.24194e-06
624.042	0.604126	4.5166e-06
626.422	0.604065	3.80859e-05
628.742	0.604614	3.05176e-06
631.082	-0.499481	-0.0121765
633.442	0.604523	2.30408e-05
635.762	0.604889	1.64795e-06
638.102	-0.499847	-0.00768433
640.462	0.60434	1.82495e-05
642.782	0.604126	7.62939e-06
645.122	-0.499054	-0.00558289
647.482	0.604675	1.19324e-05
649.802	0.605133	-6.10352e-07
652.142	-0.499329	-0.0045282
654.502	0.604706	8.94165e-06
656.822	0.604279	4.97437e-06
659.182	6.10352e-06	0.0063504
661.522	0.604279	1.14441e-05
663.842	0.604095	5.67627e-06
666.202	-0.000134277	0.00315247
668.542	0.60495	5.79834e-06
670.862	0.604675	5.18799e-07
673.222	-0.000265503	0.00147766
675.562	0.604065	9.91821e-06
677.882	0.605225	-3.2959e-06
680.242	-0.000134277	0.000661926
682.582	0.605225	3.05176e-07
684.902	0.604004	5.15747e-06
687.282	0.605499	0.000840454
689.602	0.604462	6.53076e-06
691.922	0.605408	-4.88281e-06
694.302	0.605377	6.62537e-05
696.622	0.604248	7.17163e-06
698.942	0.605164	-4.18091e-06
701.322	0.605042	3.60718e-05
703.642	0.605255	6.10352e-08
705.982	-0.499329	-0.0132172
708.342	0.604675	2.58179e-05
710.662	0.605286	-1.43433e-06
713.002	-0.498383	-0.00859375
715.362	0.604126	2.39258e-05
717.682	0.604034	7.50732e-06
720.022	-0.499329	-0.00627045
722.382	0.605286	1.02234e-05
724.702	0.605164	-1.46484e-06
727.042	-0.498627	-0.0050235
729.402	0.605072	9.12476e-06
731.722	0.604736	2.41089e-06
734.082	-0.000244141	0.00662354
736.422	0.60495	7.08008e-06
738.742	0.604218	5.5542e-06
741.102	-0.000244141	0.0035672
743.442	0.605255	5.34058e-06
745.762	0.604095	7.93457e-06
748.122	0.000582886	0.00182312
750.462	0.605347	1.43433e-06
752.782	0.604401	2.0752e-06
755.142	0.000308228	0.000903931
757.482	0.605286	1.80054e-06
759.802	0.604156	5.15747e-06
762.182	0.604065	0.00801392
764.502	0.604187	8.20923e-06
766.822	0.603973	5.5542e-06
769.202	0.604492	8.26416e-05
771.522	0.603943	9.552e-06
773.842	0.604553	1.67847e-06
776.222	0.604004	4.74548e-05
778.542	0.604156	8.05664e-06
780.882	-0.499542	-0.0140045
783.242	0.604279	3.01208e-05
785.562	0.604492	3.38745e-06
787.902	-0.49884	-0.00933838
790.262	0.604034	2.51465e-05
792.582	0.605377	-2.41089e-06
794.922	-0.498505	-0.00686523
797.282	0.604126	1.89514e-05
799.602	0.604828	1.31226e-06
801.942	-0.499725	-0.0054538
804.302	0.604126	1.84326e-05
806.622	0.603973	7.47681e-06
808.982	0.000372314	0.00677551
811.322	0.603882	1.56555e-05
813.642	0.605347	-1.98364e-06
816.002	-0.000128174	0.0038736
818.342	0.604889	7.2937e-06
820.662	0.604126	6.28662e-06
823.022	0.00015564	0.00211639
825.362	0.604309	8.8501e-06
827.682	0.605225	-1.2207e-06
830.042	0.000259399	0.00113525
832.382	0.605255	2.80762e-06
834.702	0.605347	-4.27246e-06
837.082	0.603699	0.00989075
839.402	0.60437	7.01904e-06
841.722	0.604492	2.34985e-06
844.102	0.605255	9.1217e-05
846.422	0.605469	-8.8501e-07
848.742	0.605194	-4.08936e-06
851.122	0.605469	4.41895e-05
853.442	0.604004	9.15527e-06
855.782	-0.498169	-0.014624
858.142	0.60498	2.78015e-05
860.462	0.604431	5.00488e-06
862.802	-0.498444	-0.00996704
865.163	0.604218	2.52991e-05
867.483	0.604675	4.57764e-06
869.823	-0.499756	-0.00738159
872.183	0.604065	2.13013e-05
874.503	0.604156	5.95093e-06
876.843	-0.499542	-0.00586273
879.203	0.605133	1.09863e-05
881.523	0.605133	-1.89209e-06
881.643	0.605042	-1.06812e-06

File: pulses_1000_to_2000.txt
Time (s)	WE(1).Potential (V)	WE(1).Current (A)
893.839	-0.498291	-0.0149261
896.199	0.604462	3.29285e-05
898.519	0.604309	7.01904e-06
900.859	-0.499725	-0.01015625
903.219	0.605225	1.84021e-05
905.539	0.605347	-2.10571e-06
907.879	-0.498566	-0.00757446
910.239	0.605042	1.51367e-05
912.559	0.605377	-2.68555e-06
914.899	-0.499725	-0.00601715
917.259	0.604034	1.84937e-05
919.579	0.603943	7.93457e-06
921.939	0.000762939	0.00684265
924.279	0.604156	1.76392e-05
926.599	0.605164	-1.64795e-06
928.959	-0.000402832	0.00411987
931.299	0.604218	1.12e-05
933.619	0.60437	5.58472e-06
935.979	-0.000112915	0.00239044
938.319	0.604187	1.2146e-05
940.639	0.605347	-2.44141e-06
942.999	-0.000198364	0.00136719
945.339	0.605042	4.91333e-06
947.659	0.60498	-2.13623e-07
950.039	0.603577	0.0114655
952.359	0.605316	1.58691e-06
954.679	0.604797	3.72314e-06
957.059	0.604126	0.00011557
959.379	0.605011	3.11279e-06
961.699	0.604279	2.56348e-06
964.079	0.604858	5.2124e-05
966.399	0.604584	6.86646e-06
968.739	-0.499176	-0.0152863
971.099	0.605042	3.23181e-05
973.419	0.604584	4.60815e-06
975.759	-0.499054	-0.0107086
978.119	0.605255	1.98364e-05
980.439	0.60498	1.2207e-06
982.779	-0.499054	-0.00803223
985.139	0.605316	1.46484e-05
987.459	0.605347	-1.2207e-06
989.799	-0.499847	-0.00639862
992.159	0.605194	1.19629e-05
994.479	0.605255	-1.61743e-06
996.839	-0.00038147	0.00687256
999.179	0.605133	8.54492e-06
1001.5	0.605286	-2.28882e-06
1003.86	0.000228882	0.004263
1006.2	0.605103	8.08716e-06
1008.52	0.605377	-2.01416e-06
1010.88	0.000149536	0.00257141
1013.22	0.604248	1.14441e-05
1015.54	0.604462	6.62231e-06
1017.9	0.000930786	0.00151855
1020.24	0.605347	2.99072e-06
1022.56	0.603882	6.43921e-06
1024.94	0.604095	0.012326
1027.26	0.605103	2.71606e-06
1029.58	0.604034	6.89697e-06
1031.96	0.604919	0.000125549
1034.28	0.604919	4.30298e-06
1036.6	0.605347	-2.92969e-06
1038.98	0.604584	6.13098e-05
1041.3	0.604156	1.01318e-05
1043.64	-0.499481	-0.0156982
1046	0.603912	4.02222e-05
1048.32	0.605194	1.49536e-06
1050.66	-0.49939	-0.0111725
1053.02	0.604156	2.99683e-05
1055.34	0.604126	8.20923e-06
1057.68	-0.49884	-0.00845947
1060.04	0.605286	1.52283e-05
1062.36	0.605011	2.16675e-06
1064.7	-0.498596	-0.00675751
1067.06	0.604095	2.10266e-05
1069.38	0.60437	3.75366e-06
1071.74	-0.000442505	0.00686188
1074.08	0.605255	9.46045e-06
1076.4	0.605286	-1.31226e-06
1078.76	0.000213623	0.00436523
1081.1	0.605255	6.53076e-06
1083.42	0.604309	7.2937e-06
1085.78	0.000280762	0.00269928
1088.12	0.604095	1.50146e-05
1090.44	0.60434	2.13623e-06
1092.8	-0.000152588	0.00165039
1095.14	0.605347	3.14331e-06
1097.46	0.605255	-1.09863e-06
1099.84	0.603546	0.0129974
1102.16	0.605133	2.34985e-06
1104.48	0.604034	6.43921e-06
1106.86	0.605408	0.00014151
1109.18	0.604614	8.57544e-06
1111.5	0.604279	5.09644e-06
1113.88	0.604767	6.30798e-05
1116.2	0.604919	3.63159e-06
1118.54	-0.498535	-0.0160583
1120.9	0.605377	3.40881e-05
1123.22	0.604279	7.59888e-06
1125.56	-0.498993	-0.0115997
1127.92	0.603973	3.22266e-05
1130.24	0.605072	1.43433e-06
1132.58	-0.49942	-0.00883484
1134.94	0.60498	2.09656e-05
1137.26	0.604797	2.83813e-06
1139.6	-0.498566	-0.00707703
1141.96	0.604614	1.73645e-05
1144.28	0.604309	5.43213e-06
1146.64	0.000695801	0.00682922
1148.98	0.604065	1.80969e-05
1151.3	0.604828	3.44849e-06
1153.66	0.000775146	0.00443237
1156	0.604034	1.73645e-05
1158.32	0.604065	8.45337e-06
1160.68	0.000701904	0.00281494
1163.02	0.604065	1.52893e-05
1165.34	0.604156	6.34766e-06
1167.7	-4.57764e-05	0.00176697
1170.04	0.604919	8.3313e-06
1172.36	0.604431	3.75366e-06
1174.74	0.603363	0.0134979
1177.06	0.604858	6.95801e-06
1179.38	0.604919	-9.46045e-07
1181.76	0.604279	0.000169769
1184.08	0.605255	3.05176e-06
1186.4	0.604126	5.34058e-06
1188.78	0.605225	6.45447e-05
1191.1	0.605133	3.26538e-06
1193.44	-0.499115	-0.0163239
1195.8	0.605316	3.8147e-05
1198.12	0.604126	6.04248e-06
1200.46	-0.498627	-0.0119629
1202.82	0.605225	2.45667e-05
1205.14	0.604126	8.02612e-06
1207.48	-0.498474	-0.00918579
1209.84	0.604492	2.40479e-05
1212.16	0.604553	5.15747e-06
1214.5	-0.49881	-0.00737732
1216.86	0.604126	2.27661e-05
1219.18	0.604065	9.24683e-06
1221.54	-0.000521851	0.00678284
1223.88	0.603973	1.62964e-05
1226.2	0.605255	-1.06812e-06
1228.56	-0.000436401	0.00447662
1230.9	0.605469	7.32422e-06
1233.22	0.604156	6.74438e-06
1235.58	0.000796509	0.00288605
1237.92	0.605255	6.2561e-06
1240.24	0.604736	1.98364e-06
1242.6	0.000686646	0.00183624
1244.94	0.605347	5.09644e-06
1247.26	0.60437	4.57764e-06
1249.64	0.603333	0.0139038
1251.96	0.604279	1.00708e-05
1254.28	0.605377	-1.7395e-06
1256.66	0.604126	0.000195801
1258.98	0.605286	2.01416e-06
1261.3	0.605225	-7.32422e-07
1263.68	0.605316	6.98242e-05
1266	0.605347	1.98364e-06
1268.34	-0.498627	-0.0165833
1270.7	0.605072	4.12292e-05
1273.02	0.604584	6.13403e-06
1275.36	-0.498932	-0.0123047
1277.72	0.605286	2.7771e-05
1280.04	0.605316	6.10352e-07
1282.38	-0.498718	-0.00951233
1284.74	0.604462	2.31934e-05
1287.06	0.604095	7.59888e-06
1289.4	-0.499786	-0.00766296
1291.76	0.604584	2.01416e-05
1294.08	0.604187	7.14111e-06
1296.44	0.000793457	0.00671753
1298.78	0.604034	1.9989e-05
1301.1	0.604218	8.91113e-06
1303.46	-7.93457e-05	0.00449921
1305.8	0.604462	1.44043e-05
1308.12	0.605408	-1.64795e-06
1310.48	-0.000485229	0.00295197
1312.82	0.605316	6.71387e-06
1315.14	0.604919	1.52588e-06
1317.5	-6.10352e-06	0.00190796
1319.84	0.60498	7.26318e-06
1322.16	0.605408	-2.86865e-06
1324.54	0.603851	0.0142395
1326.86	0.604431	9.70459e-06
1329.18	0.604004	5.46265e-06
1331.56	0.604828	0.000235046
1333.88	0.604065	1.26038e-05
1336.2	0.604553	1.43433e-06
1338.58	0.605286	7.53174e-05
1340.9	0.605133	3.54004e-06
1343.24	-0.498383	-0.0168121
1345.6	0.604187	4.91333e-05
1347.92	0.605133	2.96021e-06
1350.26	-0.49826	-0.0126038
1352.62	0.60498	3.12195e-05
1354.94	0.605438	2.0752e-06
1357.28	-0.499664	-0.0098053
1359.64	0.60434	2.78931e-05
1361.96	0.605286	-8.8501e-07
1364.3	-0.498749	-0.00792542
1366.66	0.604828	1.92261e-05
1368.98	0.604218	6.04248e-06
1371.34	-8.8501e-05	0.00664825
1373.68	0.604767	1.41602e-05
1376	0.605255	0
1378.36	-0.000402832	0.0044986
1380.7	0.605408	8.69751e-06
1383.02	0.604218	6.74438e-06
1385.38	-6.10352e-06	0.002995
1387.72	0.605042	7.23267e-06
1390.04	0.60498	1.0376e-06
1392.4	2.13623e-05	0.00196381
1394.74	0.604919	6.31714e-06
1397.06	0.604279	6.22559e-06
1399.44	0.603394	0.0145416
1401.76	0.604095	1.39465e-05
1404.08	0.605225	-1.12915e-06
1406.46	0.60498	0.000342285
1408.78	0.605316	4.76074e-06
1411.1	0.60434	4.57764e-06
1413.48	0.604767	7.94983e-05
1415.8	0.604858	3.54004e-06
1418.14	-0.498016	-0.0170349
1420.5	0.605133	4.57458e-05
1422.82	0.604034	1.08643e-05
1425.16	-0.498993	-0.0128937
1427.52	0.605164	2.88391e-05
1429.84	0.604309	7.23267e-06
1432.18	-0.498413	-0.0101105
1434.54	0.605255	2.0874e-05
1436.86	0.604858	3.38745e-06
1439.2	-0.499023	-0.00818787
1441.56	0.604675	2.1637e-05
1443.88	0.605194	7.62939e-07
1446.24	0.00027771	0.00659393
1448.58	0.604187	2.14844e-05
1450.9	0.605225	-4.27246e-07
1453.26	0.00045166	0.0044928
1455.6	0.604675	1.10779e-05
1457.92	0.604523	5.24902e-06
1460.28	0.000814819	0.00301636
1462.62	0.605011	7.04956e-06
1464.94	0.605042	6.10352e-08
1467.3	0.000854492	0.00199982
1469.64	0.604248	1.08948e-05
1471.96	0.604858	2.53296e-06
1474.34	0.603851	0.014798
1476.66	0.604919	9.30786e-06
1478.98	0.604736	1.86157e-06
1481.36	0.604523	0.00121185
1483.68	0.605072	3.26538e-06
1486	0.604095	5.64575e-06
1488.38	0.604431	8.59375E-05
1490.7	0.605438	2.38037e-06
1493.04	-0.498199	-0.0172302
1495.4	0.605164	4.64172e-05
1497.72	0.605347	1.52588e-07
1500.06	-0.498505	-0.0131775
1502.42	0.604614	3.42102e-05
1504.74	0.605408	1.89209e-06
1507.08	-0.499664	-0.0103699
1509.44	0.605164	2.21558e-05
1511.76	0.605438	2.74658e-07
1514.1	-0.498688	-0.00844421
1516.46	0.604279	2.4292e-05
1518.78	0.604462	8.91113e-06
1521.14	-0.000210571	0.00650177
1523.48	0.604248	1.96228e-05
1525.8	0.604126	6.19507e-06
1528.16	0.000482178	0.00446533
1530.5	0.605194	1.16272e-05
1532.82	0.603973	6.95801e-06
1535.18	0.000564575	0.00302063
1537.52	0.604736	1.16882e-05
1539.84	0.604065	9.46045e-06
1542.2	0.000796509	0.00202362
1544.54	0.604767	9.33838e-06
1546.86	0.604004	6.5918e-06
1549.24	0.604584	0.0150116
1551.56	0.605347	4.73022e-06
1553.88	0.604034	7.87354e-06
1556.26	0.605896	0.00527252
1558.58	0.604767	5.79834e-06
1560.9	0.605286	-1.95313e-06
1563.28	0.604095	9.27429e-05
1565.6	0.604187	1.12e-05
1567.94	-0.499207	-0.0174042
1570.3	0.604675	5.32532e-05
1572.62	0.604218	9.91821e-06
1574.96	-0.499542	-0.0134064
1577.32	0.605103	3.36914e-05
1579.64	0.604095	1.06201e-05
1581.98	-0.498413	-0.0106415
1584.34	0.604706	2.56958e-05
1586.66	0.604095	8.94165e-06
1589	-0.499634	-0.00867615
1591.36	0.605286	1.71204e-05
1593.68	0.604065	9.49097e-06
1593.8	0.60434	7.04956e-06