Folder: electrochromicfilms/Edgar/20240605/20240605/electrodeposition_pulsed_potential_20240605_B

File: pulses_0_to_1000.txt
Time (s)	WE(1).Potential (V)	WE(1).Current (A)
181.727	-0.698547	-0.00457794
184.067	-0.000302124	0.000144073
186.387	0.000671387	1.40381e-06
188.727	-0.698456	-0.00741913
191.067	-8.54492e-05	0.000155365
193.387	0.00071106	-9.56116e-05
195.727	-0.699188	-0.00945129
198.067	-0.000296021	0.000299835
200.387	-0.00020752	-0.000142303
202.727	-0.69931	-0.0108398
205.067	-6.40869e-05	0.000779724
207.387	-0.000286865	-0.000176361
209.727	-0.698669	-0.0119507
212.067	3.96729e-05	0.00152832
214.387	0.000415039	-0.000203247
216.727	-0.698273	-0.0128387
219.067	-0.000198364	0.00238525
221.387	-0.000262451	-0.000218597
223.727	-0.69812	-0.0135925
226.067	-0.000137329	0.00322723
228.387	0.000640869	-0.00023819
230.727	-0.699127	-0.0142242
233.067	-0.000219727	0.0040033
235.387	-0.000222778	-0.00024118
237.727	-0.697968	-0.0147797
240.067	0.000350952	0.00467926
242.387	0.000622559	-0.00025531
244.727	-0.698334	-0.0152527
247.067	-0.000274658	0.0052594
249.387	0.000442505	-0.000256775
251.727	-0.698761	-0.0156799
254.067	-0.000302124	0.00574921
256.387	0.000579834	-0.000257202
258.727	-0.698944	-0.0160522
261.067	5.49316e-05	0.00616211
263.387	0.000244141	-0.000249756
265.727	-0.697937	-0.0163971
268.067	-0.000256348	0.0065271
270.387	-0.000234985	-0.000234314
272.727	-0.698914	-0.0167023
275.067	0.000177002	0.00682739
277.387	0.000579834	-0.000224182
279.727	-0.698914	-0.01698
282.067	-0.000405884	0.00710358
284.387	0.000759888	-0.000204926
286.727	-0.697937	-0.0172394
289.067	0.000518799	0.0073288
291.387	0.000109863	-0.000176239
293.727	-0.698059	-0.0174713
296.067	-7.01904e-05	0.00754089
298.387	0.000613403	-0.000146576
300.727	-0.69873	-0.0176788
303.067	0.000469971	0.00772705
305.387	0.000704956	-0.00011554
307.727	-0.698822	-0.0178741
310.067	-0.00045166	0.00788879
312.387	-0.000292969	-6.97021e-05
314.727	-0.698425	-0.0180573
317.067	0.000469971	0.00803528
319.387	-0.000146484	-3.11279e-05
321.727	-0.697784	-0.0182251
324.067	0.000524902	0.00817261
326.387	-0.000192261	1.40381e-05
328.727	-0.69812	-0.0183868
331.067	0.000439453	0.00827637
333.387	0.000405884	5.56335e-05
335.727	-0.698425	-0.0185272
338.067	0.000393677	0.00838013
340.387	-0.000274658	0.000107635
342.727	-0.697815	-0.0186676
345.067	0.000448608	0.00846863
347.387	-0.000317383	0.000157257
349.727	-0.697845	-0.0188049
352.067	0.00020752	0.00856018
354.387	0.000683594	0.000201843
356.727	-0.698547	-0.0189117
359.067	-0.000152588	0.00863037
361.387	-3.35693e-05	0.000256348
363.727	-0.698303	-0.0190186
366.067	0.000430298	0.0086792
368.387	-0.000216675	0.000315399
370.727	-0.698517	-0.0191284
373.067	0.000186157	0.00874939
375.387	-1.83105e-05	0.000367401
377.727	-0.697968	-0.0192322
380.067	-0.000338745	0.00881042
382.387	-2.13623e-05	0.000421631
384.727	-0.697754	-0.0193268
387.067	0.000186157	0.0088562
389.387	0.000256348	0.000475616
391.727	-0.698822	-0.0194244
394.067	0.00015564	0.00888367
396.387	0.00043335	0.00053009
398.727	-0.698059	-0.0195007
401.067	2.44141e-05	0.00892029
403.387	0.000799561	0.000584106
405.727	-0.698425	-0.0195831
408.067	0.000296021	0.00895691
410.387	0.000534058	0.000640564
412.727	-0.698517	-0.0196564
415.067	0.000430298	0.00899353
417.387	-0.000216675	0.000704041
419.727	-0.698669	-0.0197388
422.067	0.0003479	0.00901489
424.387	0.000360107	0.000751038
426.727	-0.698212	-0.0198212
429.067	-0.000515747	0.00905457
431.387	-0.000259399	0.000811768
433.727	-0.697998	-0.0199036
436.067	-2.74658e-05	0.00906982
438.387	-2.13623e-05	0.00086731
440.727	-0.698761	-0.0199554
443.067	0.000198364	0.00909119
445.387	0.00078125	0.000914612
447.727	-0.697723	-0.0200226
450.067	-0.000363159	0.00911865
452.387	-0.000210571	0.000972595
454.727	-0.698547	-0.0200867
457.067	0.000292969	0.00912781
459.387	6.40869e-05	0.00101776
461.727	-0.697723	-0.0201447
464.067	-0.000357056	0.00914307
466.387	0.000689697	0.00107056
468.727	-0.698608	-0.0201935
471.067	-0.000177002	0.00913696
473.387	0.000686646	0.0011203
475.727	-0.697693	-0.0202393
478.067	-0.000396729	0.00916138
480.387	-2.44141e-05	0.00117645
482.727	-0.697693	-0.0202881
485.067	-0.000552368	0.00915527
487.387	0.000787354	0.00122803
489.727	-0.698761	-0.0203217
492.067	-0.000537109	0.00915527
494.387	-0.000115967	0.00128113
496.727	-0.698761	-0.0203705
499.067	-0.000579834	0.00916748
501.387	0.000180054	0.001328125
503.727	-0.697937	-0.0204163
506.067	1.52588e-05	0.00917664
508.387	0.000708008	0.00137207
510.727	-0.697662	-0.0204468
513.067	-0.000390625	0.00917053
515.387	-0.00012207	0.0014267
517.727	-0.69754	-0.0204803
520.067	2.13623e-05	0.00918579
522.387	-0.000250244	0.00147369
524.727	-0.698761	-0.0205139
527.067	0.000485229	0.00917358
529.387	-0.000137329	0.00152618
531.727	-0.697906	-0.0205505
534.067	0.000247192	0.00917053
536.387	-0.000299072	0.00157227
538.727	-0.69809	-0.020575
541.067	0.000210571	0.00918579
543.387	-0.000195313	0.0016214
545.727	-0.698425	-0.0205963
548.067	0.000228882	0.00918274
550.387	0.000305176	0.0016626
552.727	-0.697723	-0.0206238
555.067	-0.000326538	0.00917053
557.387	0.000537109	0.00170746
559.727	-0.697876	-0.020639
562.067	0.00055542	0.00916748
564.387	0.000869751	0.00174927
566.727	-0.69809	-0.0206573
569.067	-0.0006073	0.00916138
571.387	0.000906372	0.0017926
573.727	-0.697693	-0.0206848
576.067	0.000534058	0.00915222
578.387	6.10352e-05	0.00183868
580.727	-0.698242	-0.0207001
583.067	-0.000723267	0.00914001
585.387	0.000741577	0.00187653
587.727	-0.698883	-0.0207031
590.067	0.000527954	0.00913086
592.387	0.000823975	0.00191376
594.727	-0.697693	-0.0207489
597.067	-3.05176e-05	0.00915222
599.387	0.00078125	0.00195404
601.727	-0.698181	-0.0207703
604.067	-0.000460815	0.00913391
606.387	0.000814819	0.00199646
608.727	-0.69754	-0.0207916
611.067	-0.000598145	0.00912781
613.387	0.000335693	0.00202271
615.727	-0.698669	-0.0208038
618.067	-0.00010376	0.00910034
620.387	-0.000308228	0.00206055
622.727	-0.698578	-0.020816
625.067	-0.000411987	0.00908508
627.387	-0.000308228	0.00209808
629.727	-0.698669	-0.0208221
632.067	0.000372314	0.00907898
634.387	0.000152588	0.00213593
636.727	-0.697662	-0.0208313
639.067	-0.000601196	0.00906067
641.387	0.000549316	0.00217163
643.727	-0.697784	-0.0208374
646.067	0.000152588	0.00905151
648.387	0.000830078	0.00220734
650.727	-0.698059	-0.0208344
653.067	0.000497437	0.00904236
655.387	0.000570679	0.00224182
657.727	-0.697784	-0.0208618
660.067	-0.000570679	0.0090332
662.387	0.000772095	0.00227783
664.727	-0.697937	-0.0208557
667.067	0.0003479	0.00903015
669.387	-0.000204468	0.00231812
671.727	-0.698547	-0.0208923
674.067	-0.000296021	0.0090332
676.387	0.000863647	0.00234406
678.727	-0.698486	-0.0208862
681.067	3.05176e-06	0.00901794
683.388	0.000427246	0.00237518
685.728	-0.697754	-0.0209076
688.068	-0.000549316	0.00901489
690.388	0.000430298	0.00240936
692.728	-0.698517	-0.0209137
695.068	-0.000482178	0.00901184
697.388	0.000662231	0.00244141
699.728	-0.697632	-0.0209259
702.068	0.000408936	0.00899658
704.388	0.000579834	0.00247406
706.728	-0.697601	-0.0209595
709.068	-0.000570679	0.009021
711.388	-0.00015564	0.0025058
713.728	-0.698303	-0.0209656
716.068	-0.000375366	0.00900574
718.388	0.00057373	0.0025293
720.728	-0.697937	-0.0209625
723.068	-0.000250244	0.00899353
725.388	0.000686646	0.0025589
727.728	-0.698639	-0.0209656
730.068	-7.01904e-05	0.00897827
732.388	0.000537109	0.00259186
734.728	-0.698334	-0.0209808
737.068	0.000161743	0.00897217
739.388	0.000466919	0.00262115
741.728	-0.698517	-0.0210022
744.068	-0.000549316	0.00898132
746.388	-0.000170898	0.00264893
748.728	-0.69809	-0.0210175
751.068	-0.000402832	0.00896301
753.388	0.000717163	0.00267212
755.728	-0.697968	-0.0210236
758.068	0.000411987	0.00896606
760.388	-0.000317383	0.00270721
762.728	-0.69754	-0.0210358
765.068	-1.52588e-05	0.0089447
767.388	0.000698853	0.00273102
769.728	-0.698181	-0.0210358
772.068	0.000488281	0.0089386
774.388	-0.000149536	0.00275696
776.728	-0.697601	-0.021048
779.068	6.10352e-06	0.00894165
781.388	0.000268555	0.00277496
783.728	-0.69751	-0.0210724
786.068	0.000454712	0.0089325
788.388	-0.000366211	0.00280365
790.728	-0.697662	-0.0210785
793.068	0.000369263	0.00892639
795.388	-0.000357056	0.00283173
797.728	-0.698639	-0.0210999
800.068	0.000582886	0.0089325
802.388	-0.000280762	0.00285797
804.728	-0.698242	-0.0211182
807.068	-0.000500488	0.0089325
809.388	-0.00017395	0.00287964
811.728	-0.697906	-0.0211212
814.068	-0.000585937	0.00892639
816.388	-0.000354004	0.00290588
818.728	-0.698578	-0.0211334
821.068	-0.000692749	0.00891113
823.388	-0.000430298	0.00292816
825.728	-0.698425	-0.0211121
828.068	0.000320435	0.00889893
830.388	0.000726318	0.00294495
832.728	-0.698181	-0.0211334
835.068	0.0003479	0.00888977
837.388	-7.01904e-05	0.00297455
839.728	-0.698303	-0.0211426
842.068	-0.000628662	0.00888062
844.388	-0.000393677	0.0029953
846.728	-0.698669	-0.0211426
849.068	-0.000274658	0.00888977
851.388	-0.000302124	0.00301147
853.728	-0.69754	-0.0211761
856.068	0.000421143	0.00887451
858.388	-0.000314331	0.00303192
860.728	-0.69751	-0.0211609
863.068	0.000332642	0.0088562
865.388	0.000466919	0.00304535
867.728	-0.697693	-0.0211578
870.068	0.000518799	0.00884705
872.388	-0.000332642	0.0030719
874.728	-0.697571	-0.0211578
877.068	-0.000448608	0.00882874
879.388	0.000723267	0.00308624
881.688	0.000427246	0.000888672

File: pulses_1000_to_2000.txt
Time (s)	WE(1).Potential (V)	WE(1).Current (A)
890.192	-0.697357	-0.0224243
892.532	-0.000210571	0.00856628
894.852	0.000317383	0.00295441
897.192	-0.6987	-0.0211792
899.532	0.000476074	0.00871277
901.852	-0.000363159	0.00306793
904.192	-0.698669	-0.0211487
906.532	-0.000506592	0.00875854
908.852	0.000561523	0.00311249
911.192	-0.697662	-0.0211517
913.532	-0.00043335	0.00878296
915.852	-0.000286865	0.0031604
918.192	-0.697723	-0.0211334
920.532	-0.000558472	0.00878601
922.852	-0.000262451	0.00318878
925.192	-0.698578	-0.0211212
927.532	-0.000543213	0.00877075
929.852	1.52588e-05	0.00321014
932.192	-0.697998	-0.0211212
934.532	-0.000161743	0.0087677
936.852	-0.000250244	0.00323975
939.192	-0.697601	-0.0211151
941.532	0.000234985	0.00877075
943.852	0.000302124	0.00325775
946.192	-0.698578	-0.021106
948.532	-0.000531006	0.00875549
950.852	-0.000183105	0.00327759
953.192	-0.69754	-0.0211029
955.532	-0.000131226	0.00875854
957.852	0.000366211	0.00328979
960.192	-0.697571	-0.0210876
962.532	-0.000628662	0.00874023
964.852	-0.000195313	0.00331604
967.192	-0.698669	-0.0210632
969.532	-0.000643921	0.00872498
971.852	-0.000378418	0.0033313
974.192	-0.697937	-0.0210663
976.532	-0.000115967	0.00871277
978.852	0.000512695	0.00334686
981.192	-0.697815	-0.02109375
983.532	0.000210571	0.00871887
985.852	0.000778198	0.00335571
988.192	-0.6987	-0.0210785
990.532	-0.000485229	0.00870972
992.852	9.15527e-05	0.00337433
995.192	-0.698181	-0.0210693
997.532	-0.000286865	0.0086853
999.852	0.000576782	0.00339264
1002.19	-0.697845	-0.0210754
1004.53	-0.000509644	0.00868225
1006.85	0.000592041	0.00340576
1009.19	-0.698639	-0.0210693
1011.53	-0.000549316	0.00868225
1013.85	0.000454712	0.0034201
1016.19	-0.69751	-0.0210754
1018.53	-0.00022583	0.00868225
1020.85	0.000341797	0.00342896
1023.19	-0.69754	-0.0211212
1025.53	-7.62939e-05	0.0086731
1027.85	-0.000396729	0.0034491
1030.19	-0.697876	-0.0211273
1032.53	0.00010376	0.0086853
1034.85	9.15527e-06	0.00346558
1037.19	-0.698669	-0.0211151
1039.53	0.000222778	0.00870056
1041.85	2.44141e-05	0.00347137
1044.19	-0.697571	-0.0211456
1046.53	-5.79834e-05	0.00867004
1048.85	0.000335693	0.00348267
1051.19	-0.697601	-0.0211517
1053.53	-0.000543213	0.00867004
1055.85	0.000320435	0.00349945
1058.19	-0.6987	-0.0211304
1060.53	-0.000497437	0.00864868
1062.85	-0.000350952	0.00351593
1065.19	-0.69812	-0.0211426
1067.53	0.000494385	0.00864258
1069.85	-0.000366211	0.00353241
1072.19	-0.697571	-0.0211304
1074.53	-0.000561523	0.00863342
1076.85	-0.000131226	0.00354309
1079.19	-0.698425	-0.0211151
1081.53	2.13623e-05	0.00863647
1083.85	-0.000265503	0.00355682
1086.19	-0.697601	-0.0211243
1088.53	0.000274658	0.00861511
1090.85	0.000595093	0.00356323
1093.19	-0.697571	-0.021109
1095.53	-0.000497437	0.0085968
1097.85	8.8501e-05	0.00358093
1100.19	-0.697906	-0.0211121
1102.53	-8.54492e-05	0.0085907
1104.85	0.000613403	0.00358887
1107.19	-0.697449	-0.021109
1109.53	0.000180054	0.00858765
1111.85	0.000827026	0.00360596
1114.19	-0.698303	-0.021109
1116.53	-0.000650024	0.00858459
1118.85	0.000210571	0.00362213
1121.19	-0.697998	-0.0210968
1123.53	0.000170898	0.00856018
1125.85	6.10352e-05	0.00363464
1128.19	-0.697479	-0.0210815
1130.53	0.000454712	0.00856628
1132.85	-1.2207e-05	0.00364807
1135.19	-0.698761	-0.0210724
1137.53	-0.000671387	0.00854797
1139.85	-0.000396729	0.0036618
1142.19	-0.698639	-0.0210724
1144.53	-0.000418091	0.00854797
1146.85	-0.000198364	0.00367157
1149.19	-0.697754	-0.02109375
1151.53	-0.000723267	0.00855713
1153.85	-0.000384521	0.00368469
1156.19	-0.697968	-0.0211029
1158.53	-0.0006073	0.00855408
1160.85	0.000723267	0.00369049
1163.19	-0.69754	-0.021109
1165.53	-0.000500488	0.00853882
1167.85	-0.000140381	0.00370728
1170.19	-0.698486	-0.0210968
1172.53	-0.00039978	0.00852661
1174.85	0.000579834	0.00371094
1177.19	-0.697449	-0.0210968
1179.53	-0.000302124	0.00852966
1181.85	0.000775146	0.00369934
1184.19	-0.69754	-0.0211243
1186.53	-7.01904e-05	0.00848999
1188.85	-0.000375366	0.00371796
1191.19	-0.697571	-0.021109
1193.53	-9.15527e-06	0.00849609
1195.85	-0.000332642	0.00373077
1198.19	-0.697693	-0.021106
1200.53	-0.000476074	0.00848389
1202.85	0.000146484	0.00374084
1205.19	-0.697815	-0.02109375
1207.53	-0.000210571	0.00848694
1209.85	-0.000186157	0.00375397
1212.19	-0.698639	-0.0210876
1214.53	0.000268555	0.00847778
1216.85	0.000769043	0.00375977
1219.19	-0.6987	-0.0210815
1221.53	0.000469971	0.00847168
1223.85	0.000311279	0.0037735
1226.19	-0.697418	-0.0210876
1228.53	0.000219727	0.00846863
1230.85	0.00017395	0.00378326
1233.19	-0.698761	-0.0210785
1235.53	-0.00045166	0.00844421
1237.85	1.2207e-05	0.00380005
1240.19	-0.69754	-0.0210785
1242.53	0	0.00844727
1244.85	-0.000415039	0.00380859
1247.19	-0.698364	-0.0210663
1249.53	-0.000741577	0.00842285
1251.85	0.000463867	0.00381104
1254.19	-0.697479	-0.021051
1256.53	0.000253296	0.0084137
1258.85	-0.000338745	0.0038269
1261.19	-0.697815	-0.021051
1263.53	-0.000628662	0.0084137
1265.85	0.000405884	0.00383545
1268.19	-0.698669	-0.0210449
1270.53	-0.000158691	0.0084198
1272.85	-0.000222778	0.00385132
1275.19	-0.698547	-0.0210358
1277.53	0.000192261	0.00839539
1279.85	0.000723267	0.00385132
1282.19	-0.69751	-0.0210419
1284.53	-7.93457e-05	0.00833435
1286.85	-0.000280762	0.00380066
1289.19	-0.698151	-0.0210907
1291.53	-0.000326538	0.0083252
1293.85	0.000787354	0.00381531
1296.19	-0.698639	-0.0210632
1298.53	-0.000640869	0.00834045
1300.85	-0.000289917	0.00384216
1303.19	-0.697815	-0.0210632
1305.53	0.000463867	0.00834351
1307.85	-2.13623e-05	0.00385956
1310.19	-0.6987	-0.0210724
1312.53	0.000509644	0.00834351
1314.85	-0.000454712	0.00387543
1317.19	-0.6987	-0.0210968
1319.53	-0.000643921	0.00835876
1321.85	-0.000241089	0.00388062
1324.19	-0.697815	-0.021109
1326.53	-0.000646973	0.00836792
1328.85	-0.000302124	0.00389252
1331.19	-0.698181	-0.021106
1333.53	0.000527954	0.00835571
1335.85	0.00022583	0.00389862
1338.19	-0.69873	-0.0210754
1340.53	0.0006073	0.00835266
1342.85	-0.000354004	0.00391113
1345.19	-0.698303	-0.0210663
1347.53	-0.000460815	0.00834961
1349.85	0.000653076	0.00391418
1352.19	-0.698669	-0.0210663
1354.53	-0.000622559	0.0083313
1356.85	-0.000411987	0.00393311
1359.19	-0.697968	-0.0210571
1361.53	-0.000454712	0.00831909
1363.85	0.000195313	0.00393616
1366.19	-0.698669	-0.0210571
1368.53	-0.000436401	0.00832214
1370.85	0.000726318	0.00394623
1373.19	-0.697479	-0.021051
1375.53	-7.32422e-05	0.00830688
1377.85	0.000680542	0.00395142
1380.19	-0.697754	-0.021051
1382.53	0.000540161	0.00830383
1384.85	-0.000189209	0.00394318
1387.19	-0.698456	-0.0210632
1389.53	-0.000704956	0.00827332
1391.85	0.000283813	0.0039444
1394.19	-0.697571	-0.0210632
1396.53	-0.000350952	0.00826721
1398.85	0.000588989	0.00395905
1401.19	-0.69751	-0.0210602
1403.53	-0.000369263	0.00827332
1405.85	-0.000219727	0.00397247
1408.19	-0.697571	-0.0210541
1410.53	-0.00039978	0.00827026
1412.85	-0.000384521	0.00398529
1415.19	-0.69751	-0.021048
1417.53	7.93457e-05	0.008255
1419.85	0.000534058	0.00399292
1422.19	-0.69754	-0.0210266
1424.53	-3.35693e-05	0.00825806
1426.85	0.00062561	0.00400543
1429.19	-0.697571	-0.0210297
1431.53	-0.00039978	0.00825806
1433.85	-0.000363159	0.00401947
1436.19	-0.69873	-0.0210022
1438.53	-0.000650024	0.00825195
1440.85	-6.71387e-05	0.00402344
1443.19	-0.698486	-0.0209961
1445.53	-0.000485229	0.00824585
1447.85	0.000738525	0.00403015
1450.19	-0.698151	-0.02099
1452.53	0.000216675	0.00823059
1454.85	-0.000402832	0.00404663
1457.19	-0.698608	-0.0209839
1459.53	4.88281e-05	0.00823059
1461.85	0.000820923	0.00405029
1464.19	-0.698303	-0.0209778
1466.53	-0.000357056	0.00823059
1468.85	0.000421143	0.00405914
1471.19	-0.698425	-0.0209747
1473.53	0.000320435	0.00822144
1475.85	0.000610352	0.00406342
1478.19	-0.698639	-0.0209656
1480.53	-0.000415039	0.00820923
1482.85	-0.000448608	0.00407593
1485.19	-0.698517	-0.0209686
1487.53	-0.000643921	0.008203125
1489.85	0.000787354	0.00407867
1492.19	-0.697784	-0.0209564
1494.53	-0.000274658	0.00819702
1496.85	-0.000430298	0.00409302
1499.19	-0.698761	-0.0209534
1501.53	-0.000631714	0.00820007
1503.85	0.000592041	0.00409424
1506.19	-0.697968	-0.0209564
1508.53	0.000540161	0.00818787
1510.85	-0.000271606	0.00410797
1513.19	-0.697662	-0.0209442
1515.53	-0.000247192	0.00818787
1517.85	0.000845337	0.00410614
1520.19	-0.698151	-0.0209381
1522.53	0.000143433	0.00816345
1524.85	-0.000494385	0.00411987
1527.19	-0.697815	-0.020929
1529.53	0.000299072	0.00817566
1531.85	0.000491333	0.00412018
1534.19	-0.698425	-0.0209229
1536.53	0.000576782	0.00816345
1538.85	-0.000323486	0.00413269
1541.19	-0.698639	-0.0209167
1543.53	-0.000753784	0.00815125
1545.85	0.000378418	0.00413635
1548.19	-0.697418	-0.020929
1550.53	0.000537109	0.0081543
1552.85	0.000802612	0.00414154
1555.19	-0.69751	-0.0209167
1557.53	-0.000161743	0.00814819
1559.85	0.00071106	0.00414825
1562.19	-0.697601	-0.0209106
1564.53	-0.000537109	0.00813599
1566.85	-7.62939e-05	0.00415955
1569.19	-0.698456	-0.0208862
1571.53	-7.32422e-05	0.00812073
1573.85	-9.15527e-05	0.00416473
1576.19	-0.69751	-0.0208862
1578.53	0.000460815	0.00812683
1580.85	-0.000317383	0.00417206
1583.19	-0.698517	-0.020871
1585.53	-0.000460815	0.00812378
1587.85	-0.000430298	0.00417267
1590.15	0.000253296	0.00217102