Folder: electrochromicfilms/Edgar/20240605/20240605/LSV_test_20240605_A

File: LSV_0p25mVps_1
Time (s)	WE(1).Current (A)	WE(1).Potential (V)
61.1085	5.77087e-07	0.998535
61.4014	5.15747e-07	0.990295
61.6944	4.73022e-07	0.982361
61.9874	4.26331e-07	0.975952
62.2803	3.96118e-07	0.966797
62.5733	3.59497e-07	0.961914
62.8663	3.39966e-07	0.954285
63.1592	3.07312e-07	0.94635
63.4522	2.84424e-07	0.937805
63.7452	2.6886e-07	0.930176
64.0381	2.5177e-07	0.924683
64.3311	2.46582e-07	0.914917
64.6241	2.19727e-07	0.908508
64.917	2.20947e-07	0.90271
65.21	2.02026e-07	0.895386
65.503	1.87683e-07	0.888672
65.7959	1.87073e-07	0.878296
66.0889	1.78833e-07	0.872192
66.3819	1.84326e-07	0.866699
66.6748	1.67542e-07	0.858154
66.9678	1.6449e-07	0.85144
67.2608	1.57166e-07	0.844727
67.5538	1.47095e-07	0.834656
67.8467	1.51062e-07	0.827942
68.1397	1.38855e-07	0.821838
68.4327	1.51367e-07	0.814209
68.7256	1.42822e-07	0.806885
69.0186	1.34888e-07	0.79834
69.3116	1.2146e-07	0.793457
69.6045	1.19324e-07	0.783997
69.8975	1.27563e-07	0.777283
70.1905	1.12915e-07	0.769043
70.4834	1.26038e-07	0.761719
70.7764	1.16577e-07	0.757141
71.0694	1.12915e-07	0.74823
71.3623	1.06812e-07	0.741333
71.6553	1.00403e-07	0.734314
71.9483	1.05286e-07	0.72522
72.2412	9.64355e-08	0.717743
72.5342	9.82971e-08	0.710571
72.8272	8.11157e-08	0.703125
73.1201	8.28552e-08	0.696075
73.4131	7.34863e-08	0.688293
73.7061	7.01904e-08	0.681427
73.999	8.04443e-08	0.673828
74.292	6.79932e-08	0.66687
74.585	7.66296e-08	0.660645
74.878	6.32019e-08	0.653015
75.1709	5.82581e-08	0.646271
75.4639	6.00586e-08	0.638214
75.7569	5.84412e-08	0.631775
76.0498	6.05774e-08	0.623352
76.3428	5.60913e-08	0.615723
76.6358	5.91431e-08	0.609253
76.9287	4.81567e-08	0.602753
77.2217	3.6499e-08	0.595459
77.5147	3.90625E-08	0.586792
77.8076	4.22668e-08	0.57901
78.1006	4.10461e-08	0.571564
78.3936	3.39661e-08	0.565613
78.6865	3.46069e-08	0.556915
78.9795	2.59094e-08	0.55072
79.2725	2.00806e-08	0.544067
79.5654	2.01416e-08	0.53537
79.8584	1.60522e-08	0.527679
80.1514	1.49841e-08	0.520294
80.4443	4.08936e-09	0.514587
80.7373	5.92041e-09	0.507324
81.0303	-5.859375E-09	0.499573
81.3232	-1.91956e-08	0.492615
81.6162	-6.74438e-09	0.485291
81.9092	-2.4353e-08	0.476593
82.2022	-1.20239e-08	0.470581
82.4951	-3.44543e-08	0.461517
82.7881	-4.29993e-08	0.455475
83.0811	-4.44946e-08	0.448914
83.374	-5.08118e-08	0.440216
83.667	-4.70581e-08	0.433655
83.96	-6.97021e-08	0.425629
84.2529	-8.08411e-08	0.418884
84.5459	-8.74023e-08	0.412354
84.8389	-9.45129e-08	0.405029
85.1318	-1.00281e-07	0.39621
85.4248	-1.13892e-07	0.388763
85.7178	-1.14532e-07	0.381592
86.0107	-1.38489e-07	0.375977
86.3037	-1.56586e-07	0.366974
86.5967	-1.57593e-07	0.360626
86.8896	-1.76514e-07	0.352753
87.1826	-1.7981e-07	0.346527
87.4756	-2.06635e-07	0.338898
87.7685	-2.25983e-07	0.332153
88.0615	-2.39746e-07	0.324188
88.3545	-2.56683e-07	0.318054
88.6474	-2.68616e-07	0.310028
88.9404	-2.98035e-07	0.301483
89.2334	-3.5675e-07	0.294983
89.5264	-3.91846e-07	0.286926
89.8193	-4.34875e-07	0.280396
90.1123	-4.47388e-07	0.272644
90.4053	-4.99878e-07	0.266144
90.6982	-5.26733e-07	0.258636
90.9912	-5.91125e-07	0.250275
91.2842	-6.52771e-07	0.242645
91.5771	-6.83594e-07	0.234985
91.8701	-7.48901e-07	0.228821
92.1631	-8.06885e-07	0.222168
92.456	-8.95996e-07	0.214905
92.749	-9.56421e-07	0.205811
93.042	-1.04004e-06	0.199402
93.3349	-1.13495e-06	0.192108
93.6279	-1.21704e-06	0.184784
93.9209	-1.3205e-06	0.178162
94.2138	-1.41083e-06	0.169952
94.5068	-1.54419e-06	0.163544
94.7998	-1.68365e-06	0.15564
95.0927	-1.79504e-06	0.1492
95.3857	-1.93146e-06	0.140472
95.6787	-2.06696e-06	0.13269
95.9716	-2.25555e-06	0.126801
96.2646	-2.42462e-06	0.119263
96.5576	-2.58636e-06	0.112671
96.8506	-2.77405e-06	0.105499
97.1435	-2.97821e-06	0.098175
97.4365	-3.83911e-06	0.0904541
97.7295	-4.14734e-06	0.0821533
98.0224	-4.48914e-06	0.0739136
98.3154	-4.85229e-06	0.0669556
98.6084	-5.21545e-06	0.0603638
98.9013	-5.6488e-06	0.052002
99.1943	-6.0791e-06	0.0465912
99.4873	-6.57654e-06	0.0391724
99.7802	-7.09229e-06	0.0312134
100.073	-7.63855e-06	0.023587
100.366	-8.24585e-06	0.0162567
100.659	-8.87756e-06	0.0088623
100.952	-9.59778e-06	0.00129089
101.245	-1.03363e-05	-0.0046936
101.538	-1.1142e-05	-0.0125671
101.831	-1.20209e-05	-0.0198364
102.124	-1.29547e-05	-0.0272858
102.417	-1.3974e-05	-0.0352325
102.71	-1.50635e-05	-0.0410889
103.003	-1.62598e-05	-0.0490631
103.296	-1.75507e-05	-0.0567017
103.589	-1.89209e-05	-0.0649109
103.882	-2.04285e-05	-0.0718994
104.175	-2.2052e-05	-0.078949
104.468	-2.3819e-05	-0.0849304
104.761	-2.57355e-05	-0.0919495
105.054	-2.77924e-05	-0.0992432
105.347	-3.00201e-05	-0.107056
105.64	-3.24066e-05	-0.114929
105.933	-3.50189e-05	-0.122101
106.226	-3.77869e-05	-0.129822
106.518	-4.07745e-05	-0.136841
106.811	-4.39758e-05	-0.143982
107.104	-4.73938e-05	-0.151489
107.397	-5.11169e-05	-0.159241
107.69	-5.50842e-05	-0.167175
107.983	-5.94177e-05	-0.17395
108.276	-6.40259e-05	-0.180603
108.569	-6.89087e-05	-0.189117
108.862	-7.39746e-05	-0.196411
109.155	-7.91626e-05	-0.202637
109.448	-8.46252e-05	-0.209839
109.741	-9.02405e-05	-0.217865
110.034	-9.60999e-05	-0.225159
110.327	-0.000102295	-0.232849
110.62	-0.000108734	-0.240173
110.913	-0.000115662	-0.24762
111.206	-0.000122955	-0.254883
111.499	-0.000130829	-0.262268
111.792	-0.000139252	-0.269226
112.085	-0.000148132	-0.275696
112.378	-0.000157806	-0.283356
112.671	-0.000168365	-0.291534
112.964	-0.000180023	-0.297455
113.257	-0.00019281	-0.30545
113.55	-0.000206909	-0.312622
113.843	-0.000222351	-0.319397
114.136	-0.000239319	-0.32724
114.429	-0.000257996	-0.333923
114.722	-0.000278412	-0.341278
115.015	-0.00030069	-0.348297
115.308	-0.000324829	-0.357208
115.601	-0.00035083	-0.363617
115.893	-0.000378845	-0.372192
116.186	-0.000408813	-0.379242
116.479	-0.000441406	-0.386902
116.772	-0.000476929	-0.393311
117.065	-0.000516357	-0.401459
117.358	-0.000560303	-0.408508
117.651	-0.000610657	-0.415009
117.944	-0.000668335	-0.423309
118.237	-0.000734253	-0.429535
118.53	-0.000809937	-0.438049
118.823	-0.000895691	-0.445465
119.116	-0.000991821	-0.451569
119.409	-0.00109863	-0.45993
119.702	-0.0012149	-0.466156
119.995	-0.00133942	-0.473114
120.288	-0.00146973	-0.481628
120.581	-0.0016037	-0.488159
120.874	-0.00173828	-0.496307
121.167	-0.00187256	-0.502563
121.46	-0.00200531	-0.510651
121.753	-0.00213623	-0.517639
122.046	-0.00226624	-0.525543
122.339	-0.00239563	-0.532959
122.632	-0.00252563	-0.539795
122.925	-0.00265686	-0.546997
123.218	-0.00278778	-0.553497
123.511	-0.00291718	-0.561737
123.804	-0.00304413	-0.568085
124.097	-0.00316711	-0.575897
124.39	-0.00328552	-0.583466
124.683	-0.00339966	-0.590057
124.975	-0.00350983	-0.597565
125.268	-0.00361511	-0.604614
125.561	-0.00371521	-0.61261
125.854	-0.00380981	-0.62027
126.147	-0.00389893	-0.626495
126.44	-0.00398224	-0.634186
126.733	-0.00405914	-0.64209
127.026	-0.00413025	-0.649048
127.319	-0.00419617	-0.655548
127.612	-0.00425659	-0.663849
127.905	-0.00431274	-0.670563
128.198	-0.00436523	-0.67749
128.491	-0.00441406	-0.685455
128.784	-0.00446045	-0.691925
129.077	-0.0045047	-0.70047
129.37	-0.00454681	-0.706665
129.663	-0.0045874	-0.714111
129.956	-0.00462708	-0.721619
130.249	-0.00466553	-0.72934
130.542	-0.00470306	-0.736969
130.835	-0.00473969	-0.744263
131.128	-0.0047757	-0.751648
131.421	-0.00481079	-0.760193
131.714	-0.00484436	-0.767517
132.007	-0.00487701	-0.774841
132.3	-0.00490845	-0.782166
132.593	-0.00493866	-0.788269
132.886	-0.00496735	-0.797119
133.179	-0.00499512	-0.804749
133.472	-0.00502136	-0.812073
133.765	-0.00504608	-0.816956
134.057	-0.00506958	-0.825195
134.35	-0.00509186	-0.832825
134.643	-0.00511261	-0.841064
134.936	-0.00513214	-0.846863
135.229	-0.00515045	-0.854797
135.522	-0.00516724	-0.861816
135.815	-0.0051828	-0.869141
136.108	-0.00519745	-0.876465
136.401	-0.00521057	-0.883179
136.694	-0.00522278	-0.892029
136.987	-0.00523346	-0.899353
137.28	-0.00524292	-0.906372
137.573	-0.00525146	-0.914612
137.866	-0.00525909	-0.9198
138.159	-0.0052652	-0.927429
138.452	-0.00527039	-0.935059
138.745	-0.00527405	-0.943604
139.038	-0.00527649	-0.950928
139.331	-0.00527802	-0.957642
139.624	-0.00527802	-0.964355
139.917	-0.00527649	-0.971069
140.21	-0.00527374	-0.979309
140.503	-0.00526947	-0.986023
140.796	-0.00526428	-0.993042
141.089	-0.00525818	-1.00067

File: LSV_1
Time (s)	WE(1).Current (A)	WE(1).Potential (V)
62.5444	4.30603e-08	0.99823
63.2769	3.34473e-08	0.990906
64.0093	2.38037e-08	0.981445
64.7417	1.76697e-08	0.976257
65.4741	1.43433e-08	0.966797
66.2066	9.94873e-09	0.959167
66.939	1.13525e-08	0.952148
67.6714	6.65283e-09	0.94635
68.4038	2.38037e-09	0.937805
69.1363	6.71387e-09	0.930786
69.8687	-1.92261e-09	0.924683
70.6011	-1.70898e-09	0.916748
71.3335	-1.58691e-09	0.908508
72.0659	3.66211e-09	0.902405
72.7984	6.34766e-09	0.895386
73.5308	4.60815e-09	0.887451
74.2632	2.0752e-09	0.879517
74.9956	-2.62451e-09	0.874329
75.7281	-4.08936e-09	0.865784
76.4605	-5.52368e-09	0.859375
77.1929	-3.93677e-09	0.851135
77.9253	-4.54712e-09	0.844421
78.6578	-5.52368e-09	0.836792
79.3902	-6.95801e-09	0.827942
80.1226	-4.48608e-09	0.820923
80.855	-4.60815e-09	0.815125
81.5874	-7.65991e-09	0.80719
82.3199	-9.00269e-09	0.799255
83.0523	-1.39771e-08	0.791321
83.7847	-1.36414e-08	0.783691
84.5171	-4.63867e-09	0.779114
85.2496	-3.38745e-09	0.770569
85.982	-3.69263e-09	0.762024
86.7144	-1.83105e-10	0.756836
87.4468	1.52588e-10	0.74881
88.1793	-6.19507e-09	0.741516
88.9117	-1.05286e-08	0.733551
89.6441	-1.28479e-08	0.726166
90.3765	-1.13831e-08	0.718506
91.1089	-1.26343e-08	0.711029
91.8414	-1.05591e-08	0.704834
92.5738	-1.19019e-08	0.697052
93.3062	-1.33057e-08	0.689148
94.0386	-1.03455e-08	0.683044
94.7711	-1.1261e-08	0.674286
95.5035	-1.41602e-08	0.668427
96.2359	-1.47095e-08	0.65976
96.9683	-1.31226e-08	0.651733
97.7008	-7.99561e-09	0.64621
98.4332	-4.82178e-09	0.63913
99.1656	-6.62231e-09	0.630096
99.898	-9.27734e-09	0.624023
100.63	-1.62964e-08	0.616821
101.363	-1.28479e-08	0.608704
102.095	-1.89514e-08	0.601746
102.828	-1.47095e-08	0.594971
103.56	-2.27356e-08	0.587616
104.293	-2.05994e-08	0.579102
105.025	-2.11487e-08	0.572083
105.757	-2.35291e-08	0.564178
106.49	-2.90222e-08	0.557129
107.222	-2.10571e-08	0.549347
107.955	-1.63269e-08	0.542603
108.687	-1.26953e-08	0.53479
109.42	-1.84326e-08	0.527405
110.152	-1.95923e-08	0.522095
110.884	-2.63672e-08	0.513031
111.617	-2.74048e-08	0.507385
112.349	-3.00293e-08	0.499237
113.082	-3.07312e-08	0.492706
113.814	-3.16467e-08	0.485199
114.546	-3.36304e-08	0.477875
115.279	-3.60718e-08	0.470795
116.011	-3.97644e-08	0.462463
116.744	-4.30908e-08	0.454987
117.476	-4.54407e-08	0.447968
118.209	-4.19006e-08	0.440094
118.941	-4.01001e-08	0.433502
119.673	-4.1626e-08	0.426941
120.406	-4.61426e-08	0.419586
121.138	-5.46875E-08	0.41156
121.871	-6.15845e-08	0.404999
122.603	-6.20728e-08	0.396118
123.336	-6.98853e-08	0.390442
124.068	-6.90613e-08	0.381409
124.8	-7.74536e-08	0.374451
125.533	-8.17261e-08	0.368469
126.265	-9.48181e-08	0.360107
126.998	-9.96704e-08	0.353821
127.73	-1.00433e-07	0.346252
128.463	-1.01807e-07	0.338684
129.195	-1.05072e-07	0.331879
129.927	-1.20239e-07	0.324432
130.66	-1.32874e-07	0.315887
131.392	-1.50665e-07	0.309479
132.125	-1.58356e-07	0.301208
132.857	-1.68854e-07	0.295288
133.589	-1.84937e-07	0.288086
134.322	-1.99615e-07	0.280884
135.054	-2.07581e-07	0.273285
135.787	-2.32391e-07	0.265533
136.519	-2.53448e-07	0.257843
137.252	-2.57751e-07	0.251953
137.984	-2.71027e-07	0.24292
138.716	-2.90955e-07	0.236694
139.449	-3.63464e-07	0.228058
140.181	-3.97949e-07	0.22113
140.914	-4.3396e-07	0.214539
141.646	-4.74548e-07	0.207031
142.379	-5.03235e-07	0.199097
143.111	-5.41382e-07	0.192474
143.843	-5.83496e-07	0.184113
144.576	-6.36597e-07	0.17807
145.308	-6.7749e-07	0.170319
146.041	-7.41882e-07	0.16394
146.773	-8.01697e-07	0.156464
147.506	-8.41675e-07	0.147339
148.238	-9.06372e-07	0.140411
148.97	-9.91821e-07	0.133545
149.703	-1.06934e-06	0.12558
150.435	-1.14166e-06	0.118774
151.168	-1.2323e-06	0.111023
151.9	-1.33606e-06	0.105286
152.632	-1.40747e-06	0.0968018
153.365	-1.50757e-06	0.0887756
154.097	-1.63147e-06	0.0820007
154.83	-1.73553e-06	0.075592
155.562	-1.83594e-06	0.0684814
156.295	-1.97205e-06	0.059906
157.027	-2.10114e-06	0.0542603
157.759	-2.20093e-06	0.0465179
158.492	-2.34406e-06	0.038678
159.224	-2.51831e-06	0.030542
159.957	-2.67151e-06	0.02453
160.689	-2.82745e-06	0.0158905
161.422	-3.0072e-06	0.00987854
162.154	-3.78723e-06	0.000927734
162.886	-4.04358e-06	-0.0053009
163.619	-4.31824e-06	-0.0128204
164.351	-4.62341e-06	-0.0202271
165.084	-4.93774e-06	-0.0275818
165.816	-5.27649e-06	-0.0343933
166.549	-5.62439e-06	-0.04104
167.281	-6.02112e-06	-0.0485352
168.013	-6.44531e-06	-0.0558167
168.746	-6.91528e-06	-0.0634155
169.478	-7.41272e-06	-0.0721436
170.211	-7.95898e-06	-0.079071
170.943	-8.55713e-06	-0.0865784
171.675	-9.2041e-06	-0.0937195
172.408	-9.90295e-06	-0.099884
173.14	-1.0675e-05	-0.107452
173.873	-1.15173e-05	-0.116364
174.605	-1.2439e-05	-0.122162
175.338	-1.34369e-05	-0.130402
176.07	-1.45325e-05	-0.137939
176.802	-1.57593e-05	-0.145172
177.535	-1.71112e-05	-0.150848
178.267	-1.8634e-05	-0.158142
179	-2.03491e-05	-0.166748
179.732	-2.23083e-05	-0.173065
180.465	-2.45026e-05	-0.181793
181.197	-2.69348e-05	-0.188782
181.929	-2.95135e-05	-0.194489
182.662	-3.21503e-05	-0.202515
183.394	-3.47626e-05	-0.210175
184.127	-3.73627e-05	-0.218445
184.859	-3.99506e-05	-0.225037
185.592	-4.2511e-05	-0.232239
186.324	-4.5105e-05	-0.240082
187.056	-4.77905e-05	-0.247681
187.789	-5.05981e-05	-0.254944
188.521	-5.34058e-05	-0.262207
189.254	-5.63354e-05	-0.268372
189.986	-5.94177e-05	-0.27594
190.718	-6.27136e-05	-0.284149
191.451	-6.61926e-05	-0.291443
192.183	-7.00378e-05	-0.297943
192.916	-7.421875E-05	-0.306274
193.648	-7.89185e-05	-0.312317
194.381	-8.4137e-05	-0.320831
195.113	-9.00269e-05	-0.32785
195.845	-9.66187e-05	-0.335632
196.578	-0.000104004	-0.342499
197.31	-0.000112244	-0.349152
198.043	-0.000121155	-0.35675
198.775	-0.000130707	-0.363434
199.508	-0.000140778	-0.370911
200.24	-0.000151306	-0.378204
200.972	-0.000162537	-0.385406
201.705	-0.000174835	-0.392822
202.437	-0.000188965	-0.400055
203.17	-0.000206329	-0.408264
203.902	-0.000229095	-0.415253
204.635	-0.000260162	-0.421722
205.367	-0.000303558	-0.428986
206.099	-0.000364929	-0.437469
206.832	-0.000450867	-0.444153
207.564	-0.000567932	-0.45224
208.297	-0.000719604	-0.459106
209.029	-0.000902405	-0.46698
209.761	-0.00110596	-0.47403
210.494	-0.00131836	-0.480621
211.226	-0.00153107	-0.487823
211.959	-0.00173798	-0.496063
212.691	-0.00193573	-0.502625
213.424	-0.00212189	-0.509979
214.156	-0.00229584	-0.516876
214.888	-0.00245697	-0.524231
215.621	-0.00260681	-0.531555
216.353	-0.00274597	-0.538696
217.086	-0.00287628	-0.547089
217.818	-0.00299805	-0.553375
218.551	-0.00311218	-0.56189
219.283	-0.00321869	-0.568329
220.015	-0.00331757	-0.575806
220.748	-0.00340851	-0.58374
221.48	-0.00349152	-0.590393
222.213	-0.00356689	-0.597076
222.945	-0.00363495	-0.605164
223.678	-0.00369507	-0.611725
224.41	-0.00374908	-0.6203
225.142	-0.00379669	-0.626404
225.875	-0.00383881	-0.634003
226.607	-0.00387665	-0.641541
227.34	-0.00391174	-0.648895
228.072	-0.0039444	-0.656616
228.804	-0.00397644	-0.663727
229.537	-0.00400848	-0.671509
230.269	-0.00404144	-0.678162
231.002	-0.00407593	-0.685852
231.734	-0.00411255	-0.692291
232.467	-0.0041507	-0.699493
233.199	-0.00419037	-0.707703
233.931	-0.00423096	-0.713867
234.664	-0.00427216	-0.721497
235.396	-0.00431305	-0.728516
236.129	-0.00435333	-0.736603
236.861	-0.0043924	-0.743866
237.594	-0.00442963	-0.751343
238.326	-0.00446503	-0.759277
239.058	-0.00449829	-0.768127
239.791	-0.00452942	-0.773315
240.523	-0.00455811	-0.782166
241.256	-0.00458405	-0.7901
241.988	-0.00460785	-0.796204
242.721	-0.00462921	-0.805054
243.453	-0.00464905	-0.811462
244.185	-0.00466614	-0.818481
244.918	-0.00468109	-0.825195
245.65	-0.00469421	-0.832825
246.383	-0.00470551	-0.839539
247.115	-0.00471466	-0.846558
247.847	-0.00472229	-0.853577
248.58	-0.00472809	-0.862732
249.312	-0.00473114	-0.869141
250.045	-0.00473206	-0.877075
250.777	-0.00473022	-0.88501
251.51	-0.00472504	-0.891724
252.242	-0.00471588	-0.899658
252.974	-0.00470276	-0.906982
253.707	-0.00468536	-0.914001
254.439	-0.00466309	-0.921326
255.172	-0.00463562	-0.92865
255.904	-0.00460388	-0.936279
256.637	-0.00457031	-0.943604
257.369	-0.00453918	-0.950928
258.101	-0.00451935	-0.957947
258.834	-0.00451935	-0.964661
259.566	-0.00454468	-0.971069
260.299	-0.00459229	-0.979919
261.031	-0.00465363	-0.986938
261.764	-0.00471497	-0.993347
262.496	-0.0047641	-1.00098

File: LSV_100mVps_1
Time (s)	WE(1).Current (A)	WE(1).Potential (V)
60.83	2.43835e-07	0.995789
60.9032	1.297e-07	0.989075
60.9765	1.36108e-07	0.983582
61.0497	7.96509e-08	0.974121
61.1229	3.71399e-08	0.968933
61.1962	4.78516e-08	0.959473
61.2694	-1.76697e-08	0.951843
61.3427	-1.47705e-08	0.94635
61.4159	-1.25122e-09	0.939026
61.4891	-3.48816e-08	0.932617
61.5624	-2.9541e-08	0.923462
61.6356	-7.55615e-08	0.917358
61.7089	-7.51343e-08	0.908203
61.7821	-5.94177e-08	0.902405
61.8554	-7.66296e-08	0.894165
61.9286	-7.18079e-08	0.888062
62.0018	-1.1792e-07	0.879517
62.0751	-9.8114e-08	0.873718
62.1483	-8.31909e-08	0.865173
62.2216	-1.06232e-07	0.856628
62.2948	-8.72498e-08	0.85144
62.3681	-1.23962e-07	0.843506
62.4413	-1.2616e-07	0.837402
62.5145	-1.00067e-07	0.829773
62.5878	-1.18256e-07	0.821228
62.661	-1.31531e-07	0.815125
62.7343	-1.46179e-07	0.808105
62.8075	-1.58447e-07	0.800476
62.8807	-1.13861e-07	0.791931
62.954	-1.52527e-07	0.785828
63.0272	-1.39954e-07	0.776978
63.1005	-1.56128e-07	0.770569
63.1737	-1.56708e-07	0.76355
63.247	-9.95178e-08	0.754089
63.3202	-1.78619e-07	0.747528
63.3934	-1.46332e-07	0.740814
63.4667	-1.65588e-07	0.732483
63.5399	-1.72394e-07	0.727386
63.6132	-1.23291e-07	0.718872
63.6864	-1.98853e-07	0.71106
63.7596	-1.67572e-07	0.704834
63.8329	-1.77399e-07	0.696594
63.9061	-1.97266e-07	0.690216
63.9794	-1.4682e-07	0.681824
64.0526	-2.11304e-07	0.674957
64.1259	-2.00623e-07	0.668243
64.1991	-1.89514e-07	0.661011
64.2723	-2.05475e-07	0.652954
64.3456	-1.6095e-07	0.645142
64.4188	-2.22046e-07	0.639191
64.4921	-2.02667e-07	0.630646
64.5653	-1.97479e-07	0.624634
64.6386	-2.24762e-07	0.616852
64.7118	-1.80847e-07	0.609222
64.785	-2.55524e-07	0.602661
64.8583	-2.0932e-07	0.595856
64.9315	-2.28424e-07	0.587158
65.0048	-2.12463e-07	0.579346
65.078	-1.97418e-07	0.57312
65.1512	-2.58942e-07	0.566223
65.2245	-2.39532e-07	0.557526
65.2977	-2.32849e-07	0.550232
65.371	-2.47681e-07	0.544067
65.4442	-2.25494e-07	0.53656
65.5175	-2.72217e-07	0.52829
65.5907	-2.59766e-07	0.522461
65.6639	-2.46948e-07	0.514221
65.7372	-2.86224e-07	0.507935
65.8104	-2.90833e-07	0.499481
65.8837	-3.05481e-07	0.491302
65.9569	-3.25317e-07	0.484619
66.0302	-2.88391e-07	0.478058
66.1034	-3.22266e-07	0.470703
66.1766	-3.20435e-07	0.461731
66.2499	-4.13208e-07	0.455078
66.3231	-3.69568e-07	0.447327
66.3964	-3.54614e-07	0.440002
66.4696	-4.27551e-07	0.433411
66.5428	-3.93982e-07	0.426605
66.6161	-4.48914e-07	0.417755
66.6893	-4.45557e-07	0.412201
66.7626	-4.22974e-07	0.404694
66.8358	-5.05676e-07	0.396088
66.9091	-5.10559e-07	0.388428
66.9823	-5.22766e-07	0.3828125
67.0555	-5.896e-07	0.375153
67.1288	-5.0293e-07	0.367096
67.202	-6.25305e-07	0.359467
67.2753	-6.17981e-07	0.3526
67.3485	-6.52771e-07	0.346649
67.4217	-6.96716e-07	0.339447
67.495	-6.65588e-07	0.330109
67.5682	-8.2428e-07	0.323517
67.6415	-8.02612e-07	0.31723
67.7147	-8.89587e-07	0.309204
67.788	-8.72498e-07	0.301239
67.8612	-9.00879e-07	0.293274
67.9344	-1.01685e-06	0.286224
68.0077	-1.07086e-06	0.280823
68.0809	-1.1203e-06	0.272522
68.1542	-1.19049e-06	0.265289
68.2274	-1.27533e-06	0.257141
68.3007	-1.40778e-06	0.251129
68.3739	-1.55365e-06	0.242462
68.4471	-1.60065e-06	0.237
68.5204	-1.79016e-06	0.228241
68.5936	-1.83594e-06	0.220612
68.6669	-2.10419e-06	0.215179
68.7401	-2.24274e-06	0.20636
68.8133	-2.41608e-06	0.20047
68.8866	-2.67365e-06	0.192505
68.9598	-2.86133e-06	0.18515
69.0331	-3.85437e-06	0.176941
69.1063	-4.17175e-06	0.171021
69.1796	-4.53796e-06	0.163239
69.2528	-5.0354e-06	0.154663
69.326	-5.41077e-06	0.14798
69.3993	-5.9906e-06	0.14151
69.4725	-6.47888e-06	0.133636
69.5458	-6.95801e-06	0.125366
69.619	-7.59583e-06	0.119781
69.6923	-8.17261e-06	0.112305
69.7655	-8.84094e-06	0.10498
69.8387	-9.55505e-06	0.0974121
69.912	-1.01837e-05	0.0886536
69.9852	-1.09619e-05	0.0822449
70.0585	-1.18134e-05	0.0756836
70.1317	-1.27502e-05	0.0675049
70.2049	-1.36963e-05	0.0610046
70.2782	-1.45966e-05	0.0527344
70.3514	-1.58173e-05	0.0466949
70.4247	-1.69373e-05	0.038269
70.4979	-1.8222e-05	0.031958
70.5712	-1.96472e-05	0.0229065
70.6444	-2.10052e-05	0.0167969
70.7176	-2.26349e-05	0.00985107
70.7909	-2.42706e-05	0.00161438
70.8641	-2.60651e-05	-0.00585632
70.9374	-2.80243e-05	-0.0128265
71.0106	-2.99286e-05	-0.019635
71.0838	-3.22357e-05	-0.0272675
71.1571	-3.44879e-05	-0.0349976
71.2303	-3.69385e-05	-0.0415771
71.3036	-3.95508e-05	-0.0500946
71.3768	-4.22363e-05	-0.0574036
71.4501	-4.51965e-05	-0.0643921
71.5233	-4.83093e-05	-0.0720825
71.5965	-5.14526e-05	-0.078064
71.6698	-5.49622e-05	-0.0861816
71.743	-5.85022e-05	-0.0930176
71.8163	-6.25E-05	-0.101257
71.8895	-6.64978e-05	-0.10733
71.9628	-7.07703e-05	-0.11499
72.036	-7.54395e-05	-0.123322
72.1092	-8.01086e-05	-0.129791
72.1825	-8.54187e-05	-0.136627
72.2557	-9.08813e-05	-0.144043
72.329	-9.66797e-05	-0.152435
72.4022	-0.000102997	-0.158783
72.4754	-0.00010968	-0.166199
72.5487	-0.000116943	-0.1745
72.6219	-0.000124542	-0.181671
72.6952	-0.000132477	-0.187805
72.7684	-0.000141052	-0.19577
72.8417	-0.000149841	-0.203339
72.9149	-0.000159058	-0.210724
72.9881	-0.000168701	-0.217072
73.0614	-0.000178741	-0.225189
73.1346	-0.000189484	-0.231598
73.2079	-0.000200775	-0.240112
73.2811	-0.000212738	-0.246307
73.3544	-0.000225616	-0.254242
73.4276	-0.000239044	-0.261993
73.5008	-0.000253754	-0.269348
73.5741	-0.000269196	-0.275238
73.6473	-0.000285645	-0.282806
73.7206	-0.000303314	-0.290771
73.7938	-0.000322052	-0.298737
73.867	-0.000342499	-0.30603
73.9403	-0.000364319	-0.312347
74.0135	-0.000387604	-0.320831
74.0868	-0.00041272	-0.327179
74.16	-0.000439484	-0.335663
74.2333	-0.000468384	-0.342712
74.3065	-0.000499268	-0.349121
74.3797	-0.000531616	-0.356171
74.453	-0.000566101	-0.364349
74.5262	-0.000602417	-0.372101
74.5995	-0.000640564	-0.378967
74.6727	-0.000680542	-0.386108
74.7459	-0.000722656	-0.393463
74.8192	-0.000767212	-0.401367
74.8924	-0.000813599	-0.408661
74.9657	-0.000863037	-0.414825
75.0389	-0.000915222	-0.422791
75.1122	-0.000970154	-0.430054
75.1854	-0.00102844	-0.437958
75.2586	-0.00108978	-0.445282
75.3319	-0.00115448	-0.451385
75.4051	-0.00122253	-0.458832
75.4784	-0.00129364	-0.467255
75.5516	-0.0013681	-0.473633
75.6249	-0.00144562	-0.481598
75.6981	-0.00152679	-0.489166
75.7713	-0.00161072	-0.495514
75.8446	-0.00169739	-0.503357
75.9178	-0.00178711	-0.510406
75.9911	-0.00187866	-0.517975
76.0643	-0.00197235	-0.524261
76.1375	-0.00206818	-0.532715
76.2108	-0.00216461	-0.539001
76.284	-0.00226227	-0.547363
76.3573	-0.00235992	-0.554993
76.4305	-0.00245728	-0.560791
76.5038	-0.00255493	-0.568024
76.577	-0.00265167	-0.575439
76.6502	-0.00274811	-0.583771
76.7235	-0.00284393	-0.590942
76.7967	-0.00293915	-0.597229
76.87	-0.00303467	-0.604767
76.9432	-0.00312988	-0.612488
77.0165	-0.00322571	-0.620575
77.0897	-0.00332214	-0.626923
77.1629	-0.00341919	-0.634155
77.2362	-0.00351746	-0.641052
77.3094	-0.00361633	-0.648621
77.3827	-0.00371613	-0.656647
77.4559	-0.00381561	-0.663116
77.5291	-0.00391388	-0.670624
77.6024	-0.00401154	-0.677643
77.6756	-0.00410583	-0.686035
77.7489	-0.00419647	-0.693329
77.8221	-0.00428253	-0.700714
77.8954	-0.00436371	-0.706635
77.9686	-0.0044397	-0.715332
78.0418	-0.0045105	-0.721527
78.1151	-0.00457642	-0.729767
78.1883	-0.00463776	-0.735687
78.2616	-0.00469482	-0.74353
78.3348	-0.00474854	-0.75119
78.408	-0.00479858	-0.758972
78.4813	-0.00484528	-0.768433
78.5545	-0.00488953	-0.775146
78.6278	-0.00493134	-0.78186
78.701	-0.0049707	-0.788574
78.7743	-0.00500824	-0.795593
78.8475	-0.00504395	-0.804138
78.9207	-0.005078125	-0.810242
78.994	-0.00511047	-0.819397
79.0672	-0.0051416	-0.825195
79.1405	-0.00517151	-0.833435
79.2137	-0.0052002	-0.840454
79.287	-0.00522797	-0.846252
79.3602	-0.00525421	-0.855408
79.4334	-0.00528015	-0.861206
79.5067	-0.00530457	-0.86853
79.5799	-0.00532837	-0.877686
79.6532	-0.00535126	-0.88501
79.7264	-0.00537323	-0.892334
79.7996	-0.00539459	-0.900269
79.8729	-0.00541504	-0.906372
79.9461	-0.00543488	-0.914307
80.0194	-0.0054541	-0.921631
80.0926	-0.00547272	-0.928345
80.1659	-0.00549042	-0.935059
80.2391	-0.00550781	-0.942993
80.3123	-0.00552429	-0.950623
80.3856	-0.00554047	-0.957031
80.4588	-0.00555573	-0.965271
80.5321	-0.00557068	-0.971375
80.6053	-0.00558472	-0.978699
80.6786	-0.00559845	-0.987549
80.7518	-0.00561188	-0.993042
80.825	-0.00562469	-1.00037