Folder: electrochromicfilms/Edgar/20230821/20230821/electrochromic_setup_test/test_1_0p5_0p5_OCP

File: CV_1.txt
Time (s)	WE(1).Potential (V)	WE(1).Current (A)
37.9992	0.170959	2.59399e-08
38.2922	0.178223	5.40161e-08
38.5852	0.18512	5.69153e-08
38.8781	0.19281	6.11572e-08
39.1711	0.200806	6.68945e-08
39.4641	0.21048	7.96204e-08
39.757	0.216858	7.50427e-08
40.05	0.220673	7.06482e-08
40.343	0.230621	8.30078e-08
40.6359	0.236969	8.12073e-08
40.9289	0.243988	8.38318e-08
41.2219	0.248505	7.52563e-08
41.5148	0.256592	8.17261e-08
41.8078	0.268463	9.73511e-08
42.1008	0.271942	8.60291e-08
42.3938	0.280334	8.7677e-08
42.6867	0.288666	9.52454e-08
42.9797	0.297699	1.0025e-07
43.2727	0.303619	1.01593e-07
43.5656	0.308777	9.40247e-08
43.8586	0.317902	1.09467e-07
44.1516	0.324799	9.87549e-08
44.4445	0.331207	1.01898e-07
44.7375	0.337738	9.7168e-08
45.0305	0.346832	1.05133e-07
45.3234	0.355011	1.10352e-07
45.6164	0.360077	1.04675e-07
45.9094	0.368988	1.10382e-07
46.2023	0.376312	1.13037e-07
46.4953	0.383453	1.15753e-07
46.7883	0.391205	1.2027e-07
47.0812	0.396271	1.12671e-07
47.3742	0.405426	1.17584e-07
47.6672	0.412079	1.24451e-07
47.9601	0.422516	1.25702e-07
48.2531	0.427551	1.22528e-07
48.5461	0.433289	1.23627e-07
48.839	0.442474	1.28784e-07
49.132	0.449371	1.32568e-07
49.425	0.456451	1.4151e-07
49.718	0.463928	1.36597e-07
50.0109	0.470032	1.35101e-07
50.3039	0.480072	1.4682e-07
50.5969	0.485382	1.42883e-07
50.8898	0.493042	1.43707e-07
51.1828	0.499908	1.48346e-07
51.4758	0.507874	1.49597e-07
51.7687	0.516174	1.57135e-07
52.0617	0.519867	1.53381e-07
52.3547	0.530029	1.5979e-07
52.6476	0.537018	1.63666e-07
52.9406	0.546356	1.77429e-07
53.2336	0.553162	1.74286e-07
53.5265	0.557159	1.71844e-07
53.8195	0.566467	1.84601e-07
54.1125	0.572968	1.84387e-07
54.4054	0.579926	1.93146e-07
54.6984	0.585785	1.91223e-07
54.9914	0.594452	1.98212e-07
55.2843	0.604523	2.12158e-07
55.5773	0.608246	2.09564e-07
55.8703	0.616821	2.20093e-07
56.1632	0.624878	2.23297e-07
56.4562	0.631683	2.27631e-07
56.7492	0.639191	2.39471e-07
57.0422	0.644623	2.37366e-07
57.3351	0.653381	2.56897e-07
57.6281	0.660553	2.58453e-07
57.9211	0.667938	2.67548e-07
58.214	0.661255	1.61835e-07
58.507	0.652222	1.11145e-07
58.8	0.647614	9.15833e-08
59.0929	0.63858	6.35071e-08
59.3859	0.632416	5.52063e-08
59.6789	0.622223	3.09143e-08
59.9718	0.615936	2.99683e-08
60.2648	0.612244	2.47803e-08
60.5578	0.601349	1.24817e-08
60.8507	0.59613	1.29089e-08
61.1437	0.588135	8.23975e-10
61.4367	0.582489	-1.2207e-10
61.7296	0.573944	-5.49316e-09
62.0226	0.565033	-8.08716e-09
62.3156	0.559845	-1.51672e-08
62.6085	0.551422	-1.30615e-08
62.9015	0.544952	-1.828e-08
63.1945	0.536926	-2.005e-08
63.4874	0.528473	-3.00903e-08
63.7804	0.5242	-2.17285e-08
64.0734	0.515045	-2.98157e-08
64.3664	0.50824	-3.35999e-08
64.6593	0.500397	-3.61938e-08
64.9523	0.493195	-3.68958e-08
65.2453	0.486237	-3.43933e-08
65.5382	0.477325	-4.47388e-08
65.8312	0.471008	-3.48816e-08
66.1242	0.464172	-4.80957e-08
66.4171	0.459137	-3.53088e-08
66.7101	0.451202	-4.63867e-08
67.0031	0.440338	-5.20325e-08
67.296	0.435272	-4.94385e-08
67.589	0.427521	-5.72205e-08
67.882	0.419281	-5.26123e-08
68.1749	0.41095	-5.50842e-08
68.4679	0.405701	-5.60303e-08
68.7609	0.399323	-5.57556e-08
69.0538	0.390686	-5.88379e-08
69.3468	0.383545	-5.74646e-08
69.6398	0.375793	-6.11877e-08
69.9327	0.369263	-6.44531e-08
70.2257	0.361298	-6.70776e-08
70.5187	0.353088	-7.20215e-08
70.8116	0.347626	-6.40259e-08
71.1046	0.339081	-7.11365e-08
71.3976	0.332947	-7.45544e-08
71.6906	0.324524	-7.1228e-08
71.9835	0.31604	-8.2489e-08
72.2765	0.312805	-7.34863e-08
72.5695	0.302582	-8.17566e-08
72.8624	0.295135	-8.28247e-08
73.1554	0.287842	-7.7179e-08
73.4484	0.281158	-7.901e-08
73.7413	0.275055	-8.15735e-08
74.0343	0.264191	-9.65576e-08
74.3273	0.259857	-8.70972e-08
74.6202	0.25235	-8.69141e-08
74.9132	0.244202	-9.05457e-08
75.2062	0.236664	-8.81653e-08
75.4991	0.229584	-9.89685e-08
75.7921	0.223938	-8.5083e-08
76.0851	0.214355	-9.72595e-08
76.378	0.208832	-9.83582e-08
76.671	0.200684	-9.60388e-08
76.964	0.195068	-9.94873e-08
77.2569	0.186798	-1.07361e-07
77.5499	0.177948	-1.08856e-07
77.8429	0.172333	-1.05316e-07
78.1358	0.164124	-1.05225e-07
78.4288	0.156067	-1.10443e-07
78.7218	0.14679	-1.2085e-07
79.0148	0.141815	-1.10962e-07
79.3077	0.136902	-1.09009e-07
79.6007	0.126587	-1.15784e-07
79.8937	0.120422	-1.11786e-07
80.1866	0.11261	-1.14777e-07
80.4796	0.108063	-1.09497e-07
80.7726	0.100281	-1.15173e-07
81.0655	0.0899963	-1.26892e-07
81.3585	0.085083	-1.2207e-07
81.6515	0.0753784	-1.24298e-07
81.9444	0.0683594	-1.24573e-07
82.2374	0.0584106	-1.36536e-07
82.5304	0.0531921	-1.35834e-07
82.8233	0.0492554	-1.25153e-07
83.1163	0.0402374	-1.35071e-07
83.4093	0.0322723	-1.2439e-07
83.7022	0.0249847	-1.31195e-07
83.9952	0.0177643	-1.31897e-07
84.2882	0.0102692	-1.40411e-07
84.5811	0.00354919	-1.46545e-07
84.8741	-0.0040802	-1.41418e-07
85.1671	-0.0120789	-1.45081e-07
85.46	-0.0185364	-1.51642e-07
85.753	-0.0262726	-1.56311e-07
86.046	-0.0333618	-1.5802e-07
86.339	-0.0406586	-1.55975e-07
86.6319	-0.0490723	-1.67694e-07
86.9249	-0.0548401	-1.6275e-07
87.2179	-0.0622559	-1.70197e-07
87.5108	-0.0681152	-1.75201e-07
87.8038	-0.0764771	-1.83655e-07
88.0968	-0.0861511	-1.93634e-07
88.3897	-0.0902405	-1.93909e-07
88.6827	-0.098877	-2.0752e-07
88.9757	-0.106628	-2.27051e-07
89.2686	-0.114899	-2.36664e-07
89.5616	-0.121277	-2.56104e-07
89.8546	-0.126251	-2.69073e-07
90.1475	-0.135925	-3.03986e-07
90.4405	-0.143219	-4.10461e-07
90.7335	-0.151428	-4.51965e-07
91.0264	-0.157806	-5.12085e-07
91.3194	-0.164886	-5.7373e-07
91.6124	-0.172363	-6.53076e-07
91.9053	-0.180237	-7.37305e-07
92.1983	-0.187714	-8.44116e-07
92.4913	-0.194794	-9.75342e-07
92.7842	-0.202026	-1.11847e-06
93.0772	-0.208984	-1.30249e-06
93.3702	-0.216675	-1.51123e-06
93.6632	-0.223999	-1.7691e-06
93.9561	-0.231201	-2.06177e-06
94.2491	-0.239197	-2.41821e-06
94.5421	-0.246124	-2.80487e-06
94.835	-0.252686	-3.29895e-06
95.128	-0.26001	-3.84521e-06
95.421	-0.267456	-4.48914e-06
95.7139	-0.275482	-5.21545e-06
96.0069	-0.282166	-6.0791e-06
96.2999	-0.28952	-7.08618e-06
96.5928	-0.296814	-8.27942e-06
96.8858	-0.304718	-9.64355e-06
97.1788	-0.312042	-1.12579e-05
97.4717	-0.31955	-1.31378e-05
97.7647	-0.326416	-1.53564e-05
98.0577	-0.328217	-1.43707e-05
98.3506	-0.321655	-9.7229e-06
98.6436	-0.314728	-6.85425e-06
98.9366	-0.307465	-4.79126e-06
99.2295	-0.299866	-3.26233e-06
99.5225	-0.292175	-2.10266e-06
99.8155	-0.284851	-1.20544e-06
100.108	-0.27832	-5.7373e-07
100.401	-0.270844	-6.7749e-08
100.694	-0.262787	2.95715e-07
100.987	-0.256287	5.61829e-07
101.28	-0.248993	7.59277e-07
101.573	-0.240875	8.88977e-07
101.866	-0.234161	9.8114e-07
102.159	-0.227173	1.03241e-06
102.452	-0.219757	1.06018e-06
102.745	-0.211456	1.06781e-06
103.038	-0.204254	1.05896e-06
103.331	-0.197906	1.03912e-06
103.624	-0.18988	1.00128e-06
103.917	-0.18219	9.79004e-07
104.21	-0.175659	9.42688e-07
104.503	-0.167938	9.06982e-07
104.796	-0.160431	8.75244e-07
105.089	-0.15332	8.3313e-07
105.382	-0.146149	8.06274e-07
105.675	-0.139069	7.65076e-07
105.968	-0.131866	7.33948e-07
106.261	-0.125	6.7749e-07
106.554	-0.116516	6.64368e-07
106.847	-0.109406	6.50635e-07
107.14	-0.102631	6.18286e-07
107.433	-0.0949097	5.97839e-07
107.726	-0.0871277	5.70068e-07
108.019	-0.0805664	5.53284e-07
108.312	-0.0733032	5.40161e-07
108.605	-0.0656433	5.02319e-07
108.897	-0.0586853	5.00793e-07
109.19	-0.0507202	4.79431e-07
109.483	-0.0432892	4.65393e-07
109.776	-0.0363678	4.55017e-07
110.069	-0.0289551	4.40979e-07
110.362	-0.0217438	4.30908e-07
110.655	-0.0139984	4.22363e-07
110.948	-0.00631409	4.07104e-07
111.241	0.000839233	3.83606e-07
111.534	0.00751648	3.93677e-07
111.827	0.0155792	3.95203e-07
112.12	0.0223511	3.74756e-07
112.413	0.0302612	3.67432e-07
112.706	0.0373413	3.66211e-07
112.999	0.0450928	3.54614e-07
113.292	0.0516968	3.46375e-07
113.585	0.0586853	3.34473e-07
113.878	0.0666504	3.41797e-07
114.171	0.0738525	3.32642e-07
114.464	0.0803833	3.45764e-07
114.757	0.0884094	3.29895e-07
115.05	0.0960693	3.10669e-07
115.343	0.102875	3.22876e-07
115.636	0.110565	3.09143e-07
115.929	0.117218	3.02124e-07
116.222	0.124329	2.91443e-07
116.515	0.131592	2.94189e-07
116.808	0.139465	2.98157e-07
117.101	0.146301	2.89001e-07
117.394	0.154114	2.90527e-07
117.687	0.161346	2.82288e-07
117.979	0.168884	2.79236e-07

File: OCP_1.txt
Time (s)	WE(1).Potential (V)
11.9059	0.168365
12.9059	0.168396
13.9059	0.168396
14.9059	0.168427
15.9059	0.168457
16.9059	0.168457
17.9059	0.168488
18.9059	0.168518
19.9059	0.168518
20.9059	0.168549
21.9059	0.168579
22.9059	0.168579
23.9059	0.16861
24.9059	0.16864
25.9059	0.168671
26.9059	0.168671
27.9059	0.168701
28.9059	0.168732
29.9059	0.168732
30.9059	0.168762