Folder: electrochromicfilms/Edgar/20230821/20230821/electrochromic_setup_test/test_2_1_0p5_OCP

File: CV_2.txt
Time (s)	WE(1).Potential (V)	WE(1).Current (A)
30.4969	0.0280457	2.96021e-08
31.1073	0.0395386	3.42712e-08
31.7176	0.0523682	4.31213e-08
32.328	0.0653992	5.41992e-08
32.9383	0.0736389	4.30908e-08
33.5487	0.0887451	5.02319e-08
34.159	0.100433	6.11572e-08
34.7694	0.110992	4.84314e-08
35.3797	0.127014	6.35071e-08
35.9901	0.13739	6.53687e-08
36.6004	0.149841	6.56738e-08
37.2108	0.163116	7.19299e-08
37.8211	0.171661	6.56128e-08
38.4315	0.186371	7.0343e-08
39.0418	0.195282	6.70776e-08
39.6522	0.209198	6.89392e-08
40.2625	0.222961	8.1665e-08
40.8729	0.235535	9.17358e-08
41.4832	0.247192	9.13696e-08
42.0936	0.260406	1.05682e-07
42.7039	0.270996	9.56421e-08
43.3143	0.28363	1.11359e-07
43.9246	0.296814	1.15479e-07
44.535	0.305878	1.15906e-07
45.1453	0.319702	1.23566e-07
45.7557	0.329376	1.2323e-07
46.366	0.343506	1.26923e-07
46.9764	0.357239	1.35803e-07
47.5867	0.369415	1.34613e-07
48.1971	0.381348	1.38123e-07
48.8074	0.394806	1.4624e-07
49.4178	0.405731	1.41571e-07
50.0281	0.417511	1.51154e-07
50.6385	0.42984	1.41296e-07
51.2488	0.440186	1.49109e-07
51.8592	0.453644	1.52618e-07
52.4695	0.463623	1.48346e-07
53.0799	0.476929	1.52069e-07
53.6902	0.491394	1.54724e-07
54.3006	0.503479	1.60797e-07
54.9109	0.513092	1.57074e-07
55.5213	0.524597	1.34796e-07
56.1316	0.510773	9.23157e-08
56.742	0.500214	7.61108e-08
57.3523	0.487427	5.859375E-08
57.9627	0.472961	4.63867e-08
58.573	0.461365	3.70789e-08
59.1834	0.449219	3.15552e-08
59.7937	0.435303	2.27966e-08
60.4041	0.425323	2.67944e-08
61.0144	0.4133	1.6449e-08
61.6248	0.399109	5.95093e-09
62.2351	0.389557	1.14746e-08
62.8455	0.376221	4.76074e-09
63.4558	0.366821	9.09424e-09
64.0662	0.352448	4.60815e-09
64.6765	0.339874	-7.75146e-09
65.2869	0.327393	-1.29089e-08
65.8972	0.316132	-1.35498e-08
66.5076	0.301147	-2.56348e-08
67.1179	0.291718	-3.23181e-08
67.7283	0.278778	-3.7323e-08
68.3386	0.266632	-4.01917e-08
68.949	0.255646	-3.97339e-08
69.5593	0.242981	-4.23584e-08
70.1697	0.229584	-5.76172e-08
70.78	0.22049	-5.13611e-08
71.3904	0.205566	-5.76172e-08
72.0007	0.193634	-6.10352e-08
72.6111	0.183472	-6.06079e-08
73.2214	0.166779	-6.82068e-08
73.8318	0.156921	-6.93054e-08
74.4421	0.142365	-7.547e-08
75.0525	0.13092	-8.01392e-08
75.6628	0.120239	-7.82471e-08
76.2732	0.108704	-7.33337e-08
76.8835	0.0936584	-8.64563e-08
77.4939	0.0856018	-7.59583e-08
78.1042	0.0714111	-7.93762e-08
78.7146	0.0612793	-7.94373e-08
79.3249	0.0488892	-7.91931e-08
79.9353	0.0353271	-8.39539e-08
80.5456	0.0231262	-8.27332e-08
81.156	0.0106659	-7.20215e-08
81.7663	-0.00153809	-1.0318e-07
82.3767	-0.0136871	-8.82263e-08
82.987	-0.0261475	-9.77173e-08
83.5974	-0.0378754	-1.01807e-07
84.2077	-0.0497986	-9.55811e-08
84.8181	-0.0621643	-9.76257e-08
85.4284	-0.0743713	-1.00616e-07
86.0388	-0.0843201	-1.04584e-07
86.6491	-0.0996399	-1.17218e-07
87.2595	-0.110291	-1.16028e-07
87.8698	-0.121735	-1.25916e-07
88.4802	-0.137146	-1.46484e-07
89.0905	-0.147797	-1.58539e-07
89.7009	-0.159241	-1.66962e-07
90.3112	-0.173401	-2.13898e-07
90.9216	-0.184052	-2.37396e-07
91.5319	-0.199646	-2.78198e-07
92.1423	-0.209503	-4.36707e-07
92.7526	-0.221008	-5.18799e-07
93.363	-0.232819	-6.30798e-07
93.9733	-0.245453	-7.92236e-07
94.5837	-0.257141	-9.67102e-07
95.194	-0.269745	-1.2326e-06
95.8044	-0.280518	-1.51917e-06
96.4147	-0.294128	-1.97418e-06
97.0251	-0.306488	-2.5528e-06
97.6354	-0.319061	-3.32031e-06
98.2458	-0.33075	-4.27551e-06
98.8561	-0.343628	-5.57861e-06
99.4665	-0.355835	-7.23572e-06
100.077	-0.367584	-9.51233e-06
100.687	-0.379242	-1.24329e-05
101.298	-0.391296	-1.62567e-05
101.908	-0.404053	-2.08771e-05
102.518	-0.416046	-2.57538e-05
103.129	-0.428711	-2.97302e-05
103.739	-0.440948	-3.20587e-05
104.349	-0.453247	-3.27637e-05
104.96	-0.465607	-3.24249e-05
105.57	-0.477814	-3.14636e-05
106.18	-0.490082	-3.04291e-05
106.791	-0.501678	-2.97302e-05
107.401	-0.514282	-2.95685e-05
108.011	-0.525848	-2.99896e-05
108.622	-0.538269	-3.09326e-05
109.232	-0.551025	-3.22113e-05
109.842	-0.562927	-3.37524e-05
110.453	-0.574615	-3.55377e-05
111.063	-0.587433	-3.74603e-05
111.673	-0.599884	-3.96576e-05
112.284	-0.611572	-4.19922e-05
112.894	-0.623749	-4.45862e-05
113.505	-0.635773	-4.72412e-05
114.115	-0.647766	-5.01709e-05
114.725	-0.6604	-5.32532e-05
115.336	-0.672729	-5.65491e-05
115.946	-0.684875	-6.00586e-05
116.556	-0.697296	-6.37817e-05
117.167	-0.709351	-6.78406e-05
117.777	-0.720917	-7.21436e-05
118.387	-0.733246	-7.67517e-05
118.998	-0.745483	-8.1665e-05
119.608	-0.758972	-8.68835e-05
120.218	-0.770569	-9.24988e-05
120.829	-0.782776	-9.83276e-05
121.439	-0.795288	-0.000104523
122.049	-0.80658	-0.000111328
122.66	-0.819702	-0.000118378
123.27	-0.830994	-0.000125732
123.88	-0.844116	-0.000133514
124.491	-0.856323	-0.000141449
125.101	-0.868835	-0.000149658
125.712	-0.879822	-0.000158173
126.322	-0.892334	-0.000166656
126.932	-0.905457	-0.000175385
127.543	-0.916443	-0.000184265
128.153	-0.92926	-0.000193146
128.763	-0.941162	-0.000202301
129.374	-0.954285	-0.000211304
129.984	-0.965271	-0.000220245
130.594	-0.9729	-0.000203979
131.205	-0.961914	-0.000148804
131.815	-0.949097	-0.000119293
132.425	-0.93689	-9.82361e-05
133.036	-0.924072	-8.19397e-05
133.646	-0.911865	-6.85425e-05
134.256	-0.899353	-5.73425e-05
134.867	-0.888062	-4.77295e-05
135.477	-0.875244	-3.9389e-05
136.087	-0.863647	-3.19946e-05
136.698	-0.85022	-2.53815e-05
137.308	-0.838928	-1.95526e-05
137.919	-0.826721	-1.4328e-05
138.529	-0.814209	-9.69849e-06
139.139	-0.802002	-5.60608e-06
139.75	-0.7901	-1.91345e-06
140.36	-0.777893	1.32751e-06
140.97	-0.765076	4.26331e-06
141.581	-0.754089	6.78406e-06
142.191	-0.741547	8.91113e-06
142.801	-0.728516	1.08704e-05
143.412	-0.716187	1.24329e-05
144.022	-0.704712	1.37146e-05
144.632	-0.692566	1.48865e-05
145.243	-0.680328	1.57379e-05
145.853	-0.668213	1.64795e-05
146.463	-0.656311	1.70258e-05
147.074	-0.643982	1.74377e-05
147.684	-0.63205	1.77307e-05
148.294	-0.618744	1.7926e-05
148.905	-0.607666	1.796875E-05
149.515	-0.595154	1.80237e-05
150.126	-0.582886	1.79962e-05
150.736	-0.570038	1.79138e-05
151.346	-0.558472	1.78497e-05
151.957	-0.546265	1.77155e-05
152.567	-0.533661	1.75934e-05
153.177	-0.521637	1.74194e-05
153.788	-0.509003	1.72028e-05
154.398	-0.496979	1.69647e-05
155.008	-0.485413	1.66748e-05
155.619	-0.472687	1.63208e-05
156.229	-0.460541	1.59607e-05
156.839	-0.448944	1.55518e-05
157.45	-0.43631	1.50909e-05
158.06	-0.423584	1.46271e-05
158.67	-0.411774	1.41144e-05
159.281	-0.400085	1.36169e-05
159.891	-0.387299	1.31134e-05
160.501	-0.375702	1.26007e-05
161.112	-0.363342	1.20911e-05
161.722	-0.351227	1.16058e-05
162.333	-0.338562	1.10992e-05
162.943	-0.326233	1.06354e-05
163.553	-0.314178	1.01929e-05
164.164	-0.301788	9.74426e-06
164.774	-0.290253	9.35059e-06
165.384	-0.277954	8.94165e-06
165.995	-0.264801	8.60291e-06
166.605	-0.253571	8.28247e-06
167.215	-0.241364	7.96509e-06
167.826	-0.228455	7.70264e-06
168.436	-0.21701	7.41882e-06
169.046	-0.204346	7.16553e-06
169.657	-0.191742	6.94275e-06
170.267	-0.180298	6.73523e-06
170.877	-0.167419	6.55518e-06
171.488	-0.155884	6.39954e-06
172.098	-0.142792	6.2561e-06
172.708	-0.13092	6.11877e-06
173.319	-0.11911	6.00891e-06
173.929	-0.107147	5.90515e-06
174.54	-0.0940552	5.78308e-06
175.15	-0.0828857	5.71289e-06
175.76	-0.0706482	5.60913e-06
176.371	-0.0579834	5.51453e-06
176.981	-0.0457886	5.45654e-06
177.591	-0.0330139	5.35278e-06
178.202	-0.0207336	5.3009e-06
178.812	-0.00884399	5.22156e-06
179.422	0.00324097	5.15442e-06
180.033	0.0152557	5.09644e-06
180.521	0.025647	5.03845e-06

File: CV_2_b.txt
Time (s)	WE(1).Potential (V)	WE(1).Current (A)
254.256	-0.425018	7.82776e-07
254.866	-0.411957	2.35504e-06
255.477	-0.40094	2.78564e-06
256.087	-0.388428	2.98004e-06
256.697	-0.375458	3.13721e-06
257.308	-0.363831	3.19519e-06
257.918	-0.351196	3.22571e-06
258.529	-0.339447	3.22571e-06
259.139	-0.326721	3.2074e-06
259.749	-0.315216	3.17078e-06
260.36	-0.302277	3.1311e-06
260.97	-0.290314	3.08228e-06
261.58	-0.278168	3.04565e-06
262.191	-0.265289	3.00293e-06
262.801	-0.253937	2.948e-06
263.411	-0.241089	2.92969e-06
264.022	-0.22876	2.88086e-06
264.632	-0.216827	2.85645e-06
265.242	-0.204529	2.84119e-06
265.853	-0.192383	2.82288e-06
266.463	-0.180206	2.83203e-06
267.073	-0.167725	2.82593e-06
267.684	-0.156311	2.81982e-06
268.294	-0.143646	2.84424e-06
268.904	-0.1315	2.85034e-06
269.515	-0.119263	2.86865e-06
270.125	-0.106628	2.90222e-06
270.736	-0.0950012	2.90527e-06
271.346	-0.0827332	2.91443e-06
271.956	-0.0705566	2.93884e-06
272.567	-0.0587769	2.94495e-06
273.177	-0.0463928	2.97546e-06
273.787	-0.0331635	2.99683e-06
274.398	-0.0220276	2.98767e-06
275.008	-0.00883789	3.02124e-06
275.618	0.00250549	3.02429e-06
276.229	0.0148804	3.03345e-06
276.839	0.027533	3.04565e-06
277.449	0.0391235	3.03345e-06
278.06	0.0519714	3.03955e-06
278.67	0.0637512	3.05176e-06
279.28	0.0705566	2.97241e-06
279.891	0.0589905	2.78931e-06
280.501	0.0473389	2.67029e-06
281.111	0.0347229	2.56042e-06
281.722	0.0228027	2.46887e-06
282.332	0.0102966	2.37427e-06
282.943	-0.00198975	2.30408e-06
283.553	-0.0144043	2.20642e-06
284.163	-0.0258881	2.10876e-06
284.774	-0.0386963	2.02942e-06
285.384	-0.0504761	1.94397e-06
285.994	-0.0630798	1.85547e-06
286.605	-0.0748901	1.79443e-06
287.215	-0.0870972	1.69678e-06
287.825	-0.0997925	1.62659e-06
288.436	-0.112	1.53809e-06
289.046	-0.123566	1.44958e-06
289.656	-0.135895	1.36108e-06
290.267	-0.147919	1.28174e-06
290.877	-0.161285	1.171875E-06
291.487	-0.172455	1.10168e-06
292.098	-0.185486	1.00403e-06
292.708	-0.196747	9.09424e-07
293.318	-0.209442	8.08411e-07
293.929	-0.22171	6.90308e-07
294.539	-0.234039	6.04248e-07
295.15	-0.246521	4.29993e-07
295.76	-0.259033	2.6001e-07
296.37	-0.270081	7.8125E-08
296.981	-0.284058	-1.9165e-07
297.591	-0.294495	-4.45557e-07
298.201	-0.306793	-7.74841e-07
298.812	-0.319	-1.2088e-06
299.422	-0.330139	-1.71234e-06
300.032	-0.342468	-2.36572e-06
300.643	-0.35556	-3.09174e-06
301.253	-0.368042	-3.90015e-06
301.863	-0.379944	-4.67529e-06
302.474	-0.391937	-5.29785e-06
303.084	-0.404297	-5.72815e-06
303.694	-0.417328	-6.05469e-06
304.305	-0.429504	-6.27747e-06
304.915	-0.441376	-6.4209e-06
305.525	-0.453339	-6.61621e-06
306.136	-0.465149	-6.86035e-06
306.746	-0.477081	-7.17468e-06
307.357	-0.48996	-7.62939e-06
307.967	-0.502319	-8.12073e-06
308.577	-0.513855	-8.72803e-06
309.188	-0.526031	-9.43909e-06
309.798	-0.539185	-1.01746e-05
310.408	-0.550934	-1.10413e-05
311.019	-0.563324	-1.1969e-05
311.629	-0.575195	-1.30127e-05
312.239	-0.587708	-1.41663e-05
312.85	-0.600159	-1.5448e-05
313.46	-0.611786	-1.69373e-05
314.07	-0.623718	-1.85028e-05
314.681	-0.636078	-2.02698e-05
315.291	-0.648529	-2.22687e-05
315.901	-0.660339	-2.4469e-05
316.512	-0.672211	-2.6886e-05
317.122	-0.684113	-2.96143e-05
317.732	-0.697754	-3.2547e-05
318.343	-0.709503	-3.57697e-05
318.953	-0.722076	-3.9328e-05
319.564	-0.733673	-4.31519e-05
320.174	-0.74588	-4.73633e-05
320.784	-0.759583	-5.19104e-05
321.395	-0.770874	-5.68848e-05
322.005	-0.782776	-6.22864e-05
322.615	-0.795288	-6.81152e-05
323.226	-0.807495	-7.43713e-05
323.836	-0.820007	-8.10242e-05
324.446	-0.831909	-8.80432e-05
325.057	-0.844421	-9.552e-05
325.667	-0.856323	-0.000103149
326.277	-0.86853	-0.000111053
326.888	-0.880127	-0.00011911
327.498	-0.893555	-0.000127197
328.108	-0.905151	-0.000135437
328.719	-0.917664	-0.000143768
329.329	-0.928955	-0.000152069
329.939	-0.941162	-0.000160553
330.55	-0.953979	-0.00016864
331.16	-0.966187	-0.000176758
331.771	-0.979004	-0.000184875
332.381	-0.990906	-0.000192963
332.991	-1.0022	-0.00020108
333.602	-1.01501	-0.000209045
334.212	-1.02722	-0.000217163
334.822	-1.04004	-0.000225281
335.433	-1.05164	-0.000233246
336.043	-1.06323	-0.000241333
336.653	-1.07635	-0.000249268
337.264	-1.08887	-0.000257599
337.874	-1.10077	-0.000265808
338.484	-1.11237	-0.000273315
339.095	-1.12427	-0.000280945
339.705	-1.13739	-0.000288879
340.315	-1.1499	-0.000298279
340.926	-1.1615	-0.000310455
341.536	-1.17401	-0.000325836
342.146	-1.18622	-0.000346191
342.757	-1.19781	-0.000374878
343.367	-1.21063	-0.000412842
343.978	-1.22284	-0.000461273
344.588	-1.23413	-0.00052124
345.198	-1.24634	-0.000596008
345.809	-1.25885	-0.000684814
346.419	-1.27106	-0.000788269
347.029	-1.28326	-0.000908203
347.64	-1.29578	-0.00104309
348.25	-1.30829	-0.0011908
348.86	-1.31958	-0.00135803
349.471	-1.3327	-0.00153961
350.081	-1.34521	-0.00173889
350.691	-1.35681	-0.00195557
351.302	-1.36871	-0.00218811
351.912	-1.38123	-0.00243744
352.522	-1.39343	-0.00270264
353.133	-1.40594	-0.00298218
353.743	-1.41815	-0.00327209
354.353	-1.42578	-0.00346893
354.964	-1.41266	-0.0032428
355.574	-1.40015	-0.00300049
356.185	-1.38885	-0.0027533
356.795	-1.37726	-0.00250824
357.405	-1.36475	-0.00227173
358.016	-1.35193	-0.00204498
358.626	-1.33972	-0.00183197
359.236	-1.32751	-0.00163422
359.847	-1.31531	-0.00145142
360.457	-1.3028	-0.0012854
361.067	-1.2915	-0.00113556
361.678	-1.27869	-0.00100006
362.288	-1.26617	-0.000878601
362.898	-1.25366	-0.000770874
363.509	-1.24176	-0.000675049
364.119	-1.23016	-0.000590515
364.729	-1.21765	-0.000515442
365.34	-1.20514	-0.000449585
365.95	-1.19324	-0.000391571
366.56	-1.18134	-0.000340729
367.171	-1.16913	-0.000296143
367.781	-1.15692	-0.000256989
368.392	-1.14441	-0.000222412
369.002	-1.13251	-0.000192291
369.612	-1.11969	-0.000165985
370.223	-1.10809	-0.000142914
370.833	-1.09619	-0.000122925
371.443	-1.08368	-0.000105804
372.054	-1.07086	-9.11255e-05
372.664	-1.05804	-7.87659e-05
373.274	-1.04706	-6.83289e-05
373.885	-1.03455	-5.96313e-05
374.495	-1.02203	-5.23987e-05
375.105	-1.00952	-4.62646e-05
375.716	-0.997314	-4.11072e-05
376.326	-0.986023	-3.66272e-05
376.936	-0.973206	-3.25897e-05
377.547	-0.960999	-2.87842e-05
378.157	-0.949707	-2.49664e-05
378.767	-0.936279	-2.09625e-05
379.378	-0.924377	-1.65558e-05
379.988	-0.912781	-1.15173e-05
380.599	-0.899658	-5.61829e-06
381.209	-0.888672	1.47705e-06
381.819	-0.875854	9.56421e-06
382.43	-0.863342	1.8869e-05
383.04	-0.851135	2.90955e-05
383.65	-0.838928	3.87054e-05
384.261	-0.827637	4.67529e-05
384.871	-0.81604	5.31921e-05
385.481	-0.802002	5.87463e-05
386.092	-0.79071	6.36292e-05
386.702	-0.778503	6.78101e-05
387.312	-0.766907	7.17773e-05
387.923	-0.754395	7.547e-05
388.533	-0.741882	7.90405e-05
389.143	-0.729675	8.30078e-05
389.754	-0.716919	8.74939e-05
390.364	-0.705139	9.2926e-05
390.974	-0.693054	9.93347e-05
391.585	-0.680237	0.000106842
392.195	-0.668518	0.000115448
392.806	-0.65625	0.000125031
393.416	-0.644379	0.00013562
394.026	-0.631622	0.00014679
394.637	-0.619507	0.00015802
395.247	-0.607697	0.00016861
395.857	-0.595093	0.000176849
396.468	-0.582855	0.000180511
397.078	-0.570618	0.000178467
397.688	-0.559174	0.000171326
398.299	-0.546265	0.000161774
398.909	-0.533936	0.000154877
399.519	-0.5224	0.00015387
400.13	-0.510254	0.000141144
400.74	-0.497375	0.000120972
401.35	-0.485382	0.00010733
401.961	-0.473206	0.00010022
402.571	-0.461456	9.68323e-05
403.181	-0.448547	9.53674e-05
403.792	-0.436798	9.49707e-05
404.28	-0.427185	9.51233e-05

File: OCP_1.txt
Time (s)	WE(1).Potential (V)
4.30578	0.0235931
5.30578	0.0236694
6.30578	0.0237488
7.30578	0.0238281
8.30578	0.0239044
9.30578	0.0239838
10.3058	0.0240631
11.3058	0.0241394
12.3058	0.02421875
13.3058	0.024295
14.3058	0.0243744
15.3058	0.0244537
16.3058	0.0245331
17.3058	0.0246124
18.3058	0.0246887
19.3058	0.024765
20.3058	0.0248413
21.3058	0.0249207
22.3058	0.025
23.3058	0.0250763

File: OCP_1_b.txt
Time (s)	WE(1).Potential (V)
4.32677	-0.429169
5.32677	-0.429047
6.32677	-0.428894
7.32677	-0.428802
8.32677	-0.42868
9.32677	-0.428558
10.3268	-0.428436
11.3268	-0.428314
12.3268	-0.428192
13.3268	-0.42807
14.3268	-0.427948
15.3268	-0.427856
16.3268	-0.427734
17.3268	-0.427612
18.3268	-0.42749
19.3268	-0.427368
20.3268	-0.427246
21.3268	-0.427155
22.3268	-0.427032
23.3268	-0.42691