Folder: electrochromicfilms/Edgar/20230619/20230619/electrodeposition_WO3_thin_films_onto_ITO_A/wo3_film_continuous_electrodeposition_A

File: CA_2
Time (s)	WE(1).Current (A)	WE(1).Potential (V)
72.0618	-0.00170258	-0.699646
73.2618	-0.00202789	-0.699097
74.4618	-0.00264282	-0.698883
75.6618	-0.00317505	-0.699463
76.8618	-0.00357147	-0.699493
78.0618	-0.00388092	-0.699249
79.2618	-0.00413635	-0.699188
80.4618	-0.00435486	-0.69931
81.6618	-0.00454559	-0.699432
82.8618	-0.00471497	-0.699402
84.0618	-0.0048645	-0.699371
85.2618	-0.00499481	-0.699341
86.4618	-0.00510864	-0.699219
87.6618	-0.0052002	-0.699127
88.8618	-0.00527649	-0.699127
90.0618	-0.00533142	-0.699463
91.2618	-0.00537109	-0.699493
92.4618	-0.00539856	-0.699463
93.6618	-0.00541687	-0.699341
94.8618	-0.00542603	-0.699127
96.0618	-0.00542603	-0.699341
97.2618	-0.00541992	-0.699463
98.4618	-0.00541077	-0.699493
99.6618	-0.00539551	-0.699402
100.862	-0.00538025	-0.699371
102.062	-0.00536194	-0.699402
103.262	-0.00534363	-0.699402
104.462	-0.00532227	-0.699524
105.662	-0.00529785	-0.699249
106.862	-0.00527649	-0.699158
108.062	-0.00525513	-0.699097
109.262	-0.00522766	-0.699341
110.462	-0.0052063	-0.699432
111.662	-0.00518188	-0.699402
112.862	-0.00515747	-0.699524
114.062	-0.00513611	-0.699493
115.262	-0.00511475	-0.699493
116.462	-0.00509338	-0.699341
117.662	-0.00507202	-0.699127
118.862	-0.00505676	-0.699127
120.062	-0.00503845	-0.699219
121.262	-0.00502319	-0.69931
122.462	-0.00500793	-0.699432
123.662	-0.00499329	-0.699493
124.862	-0.00498199	-0.699524
126.062	-0.00497284	-0.699158
127.262	-0.00496399	-0.69931
128.462	-0.0049585	-0.699524
129.662	-0.00495056	-0.699341
130.862	-0.00494232	-0.699127
132.062	-0.00493622	-0.699493
133.262	-0.00492828	-0.699158
134.462	-0.00492462	-0.699127
135.662	-0.00492035	-0.699158
136.862	-0.00491943	-0.699097
138.062	-0.00491516	-0.699463
139.262	-0.0049118	-0.699432
140.462	-0.00490875	-0.699402
141.662	-0.0049054	-0.699188
142.862	-0.00490387	-0.699432
144.062	-0.00490082	-0.699402
145.262	-0.00489838	-0.699341
146.462	-0.00489624	-0.699402
147.662	-0.0048941	-0.699127
148.862	-0.00489258	-0.699432
150.062	-0.00488953	-0.699097
151.262	-0.00488892	-0.699524
152.462	-0.004888	-0.699463
153.662	-0.00488403	-0.699158
154.862	-0.00488342	-0.699066
156.062	-0.0048822	-0.699127
157.262	-0.00488098	-0.699066
158.462	-0.00487946	-0.699432
159.662	-0.00487671	-0.699371
160.862	-0.00487579	-0.699219
162.062	-0.00487579	-0.699097
163.262	-0.00487518	-0.699371
164.462	-0.00487396	-0.699127
165.662	-0.00487396	-0.699432
166.862	-0.00487244	-0.699249
168.062	-0.00487244	-0.699219
169.262	-0.00487183	-0.699463
170.462	-0.00487152	-0.699341
171.662	-0.00487183	-0.699158
172.862	-0.00487091	-0.699158
174.062	-0.00487091	-0.699402
175.262	-0.0048703	-0.699432
176.462	-0.00486969	-0.699402
177.662	-0.00486938	-0.699127
178.862	-0.00486816	-0.699371
180.062	-0.00486786	-0.699432
181.262	-0.00486694	-0.699127
182.462	-0.00486664	-0.699493
183.662	-0.00486603	-0.699158
184.862	-0.00486542	-0.699493
186.062	-0.00486481	-0.699127
187.262	-0.00486206	-0.699158
188.462	-0.00486237	-0.699402
189.662	-0.00486298	-0.699249
190.862	-0.00486206	-0.699127
192.062	-0.00486084	-0.699066
193.262	-0.00486145	-0.699127
194.462	-0.00486053	-0.699158
195.662	-0.00485901	-0.69931
196.862	-0.0048584	-0.699158
198.062	-0.0048584	-0.699402
199.262	-0.0048584	-0.699341
200.462	-0.00485687	-0.699341
201.662	-0.00485535	-0.699188
202.862	-0.00485474	-0.699432
204.062	-0.00485443	-0.699341
205.262	-0.0048526	-0.699432
206.462	-0.00485168	-0.699188
207.662	-0.00485168	-0.699371
208.862	-0.00485107	-0.699158
210.062	-0.00485077	-0.699249
211.262	-0.00485016	-0.699219
212.462	-0.00484985	-0.699402
213.662	-0.00484955	-0.699249
214.862	-0.00485077	-0.699341
216.062	-0.00484833	-0.699463
217.262	-0.00484833	-0.699188
218.462	-0.00484802	-0.699219
219.662	-0.00484833	-0.699463
220.862	-0.00484833	-0.699341
222.062	-0.00484772	-0.699158
223.262	-0.00484772	-0.699402
224.462	-0.00484741	-0.699219
225.662	-0.0048468	-0.699463
226.862	-0.0048468	-0.699493
228.062	-0.00484741	-0.699188
229.262	-0.00484741	-0.69931
230.462	-0.00484741	-0.699219
231.662	-0.00484741	-0.699371
232.862	-0.0048465	-0.699158
234.062	-0.00484344	-0.69931
235.262	-0.00484375	-0.699219
236.462	-0.00484467	-0.699188
237.662	-0.00484314	-0.699402
238.862	-0.00484436	-0.699249
240.062	-0.00484467	-0.699158
241.262	-0.00484497	-0.699097
242.462	-0.00484589	-0.699249
243.662	-0.00484497	-0.699463
244.862	-0.0048468	-0.699524
246.062	-0.0048468	-0.699158
247.262	-0.00484802	-0.699249
248.462	-0.00484833	-0.699402
249.662	-0.00484711	-0.699249
250.862	-0.00484772	-0.699158
252.062	-0.00484802	-0.699158
253.262	-0.00484802	-0.699402
254.462	-0.00484802	-0.699371
255.662	-0.00484863	-0.699066
256.862	-0.00484833	-0.699402
258.062	-0.00484833	-0.699127
259.262	-0.00484833	-0.699188
260.462	-0.00484833	-0.69931
261.662	-0.00484802	-0.699188
262.862	-0.00484741	-0.699097
264.062	-0.00484711	-0.699066
265.262	-0.00484741	-0.69928
266.462	-0.0048468	-0.699371
267.662	-0.00484619	-0.699524
268.862	-0.00484436	-0.699493
270.062	-0.00484406	-0.699127
271.262	-0.00484222	-0.699341
272.462	-0.00484253	-0.699432
273.662	-0.00484161	-0.699432
274.862	-0.0048407	-0.699158
276.062	-0.0048407	-0.699463
277.262	-0.00484009	-0.699127
278.462	-0.00483887	-0.699127
279.662	-0.00483856	-0.699097
280.862	-0.00483795	-0.699249
282.062	-0.00483734	-0.699097
283.262	-0.00483643	-0.699463
284.462	-0.00483612	-0.699493
285.662	-0.00483582	-0.699493
286.862	-0.00483429	-0.699127
288.062	-0.00483521	-0.699402
289.262	-0.00483215	-0.699402
290.462	-0.00483307	-0.699432
291.662	-0.00483307	-0.699402
292.862	-0.00483215	-0.699432
294.062	-0.00483215	-0.699158
295.262	-0.00482971	-0.699158
296.462	-0.00483002	-0.699219
297.662	-0.00483002	-0.699432
298.862	-0.00482971	-0.699097
300.062	-0.0048288	-0.699036
301.262	-0.00482819	-0.699097
302.462	-0.0048291	-0.699127
303.662	-0.00482819	-0.699463
304.862	-0.00482697	-0.699432
306.062	-0.00482635	-0.699066
307.262	-0.00482605	-0.699188
308.462	-0.00482361	-0.69928
309.662	-0.00482239	-0.699097
310.862	-0.00482178	-0.699402
312.062	-0.00482056	-0.699402
313.262	-0.00481995	-0.699463
314.462	-0.00481873	-0.699097
315.662	-0.00481689	-0.699249
316.862	-0.00481567	-0.699463
318.062	-0.00481476	-0.699402
319.262	-0.00481262	-0.699097
320.462	-0.00481171	-0.699249
321.662	-0.00481049	-0.699341
322.862	-0.00480927	-0.699524
324.062	-0.00480804	-0.69928
325.262	-0.00480713	-0.699097
326.462	-0.00480438	-0.699219
327.662	-0.00480377	-0.699371
328.862	-0.00480072	-0.699341
330.062	-0.0047995	-0.699127
331.262	-0.00479858	-0.69928
332.462	-0.00479736	-0.699158
333.662	-0.00479645	-0.699066
334.862	-0.00479492	-0.699127
336.062	-0.00479401	-0.699402
337.262	-0.00479279	-0.699249
338.462	-0.00479156	-0.699249
339.662	-0.00479034	-0.699097
340.862	-0.00478973	-0.699158
342.062	-0.00478851	-0.699219
343.262	-0.00478546	-0.699463
344.462	-0.00478485	-0.699432
345.662	-0.00478424	-0.699127
346.862	-0.00478302	-0.699127
348.062	-0.00477997	-0.699493
349.262	-0.00477966	-0.699219
350.462	-0.00477936	-0.699127
351.662	-0.00477875	-0.69931
352.862	-0.00477783	-0.699402
354.062	-0.00477722	-0.699127
355.262	-0.00477661	-0.699158
356.462	-0.00477631	-0.69928
357.662	-0.00477539	-0.699463
358.862	-0.00477509	-0.69931
360.062	-0.00477203	-0.699066
361.262	-0.00477203	-0.699158
362.462	-0.00477203	-0.699158
363.662	-0.00477173	-0.699249
364.862	-0.00477112	-0.699371
366.062	-0.00477081	-0.699097
367.262	-0.0047702	-0.699463
368.462	-0.0047702	-0.699432
369.662	-0.0047699	-0.699219
370.862	-0.00476959	-0.699097
372.062	-0.00476746	-0.699554
373.262	-0.00476379	-0.699524
374.462	-0.00476379	-0.699463
375.662	-0.00476379	-0.699341
376.862	-0.0047641	-0.699158
378.062	-0.00476379	-0.699097
379.262	-0.00476379	-0.699249
380.462	-0.00476318	-0.699432
381.662	-0.00476257	-0.699097
382.862	-0.00476288	-0.699249
384.062	-0.00476318	-0.699463
385.262	-0.00476288	-0.699341
386.462	-0.00476318	-0.699493
387.662	-0.00476318	-0.699463
388.862	-0.00476288	-0.699341
390.062	-0.00476288	-0.69931
391.262	-0.00476349	-0.699402
392.462	-0.00476349	-0.699097
393.662	-0.00476227	-0.699402
394.862	-0.00476257	-0.699463
396.062	-0.00476288	-0.699463
397.262	-0.00476349	-0.699249
398.462	-0.00476288	-0.699066
399.662	-0.00476318	-0.699493
400.862	-0.00476318	-0.699127
402.062	-0.00476257	-0.699432
403.262	-0.00476318	-0.699097
404.462	-0.00476196	-0.699432
405.662	-0.00476105	-0.699493
406.862	-0.00476135	-0.699219
408.062	-0.00476196	-0.699188
409.262	-0.00476257	-0.699158
410.462	-0.00476288	-0.699249
411.662	-0.00476318	-0.699188
412.862	-0.00476379	-0.699219
414.062	-0.0047641	-0.699493
415.262	-0.00476471	-0.69928
416.462	-0.00476501	-0.699463
417.662	-0.00476532	-0.699524
418.862	-0.004765625	-0.699036
420.062	-0.00476654	-0.699188
421.262	-0.00476624	-0.699188
421.962	-0.00476624	-0.699402

File: OCP_3
Time (s)	WE(1).Potential (V)
422.973	-0.518494
423.973	-0.496368
424.973	-0.480469
425.973	-0.467712
426.973	-0.456879
427.973	-0.447357
428.973	-0.438843
429.973	-0.431061
430.973	-0.423889
431.973	-0.417175
432.973	-0.410919
433.973	-0.404968
434.973	-0.399292
435.973	-0.39389
436.973	-0.388702
437.973	-0.383667
438.973	-0.378784
439.973	-0.374023
440.973	-0.369354
441.973	-0.364777
442.973	-0.360229
443.973	-0.355774
444.973	-0.351318
445.973	-0.346924
446.973	-0.342529
447.973	-0.338165
448.973	-0.333801
449.973	-0.329407
450.973	-0.324982
451.973	-0.320587
452.973	-0.316132
453.973	-0.311676
454.973	-0.30719
455.973	-0.302673
456.973	-0.298096
457.973	-0.293518
458.973	-0.288879
459.973	-0.284241
460.973	-0.279602
461.973	-0.274933
462.973	-0.270264
463.973	-0.265564
464.973	-0.260925
465.973	-0.256317
466.973	-0.251709
467.973	-0.247162
468.973	-0.242676
469.973	-0.238251
470.973	-0.233917
471.973	-0.229675
472.973	-0.225525
473.973	-0.221436
474.973	-0.217499
475.973	-0.213654
476.973	-0.20993
477.973	-0.206329
478.973	-0.20282
479.973	-0.199432
480.973	-0.196136
481.973	-0.192993
482.973	-0.189911
483.973	-0.186951
484.973	-0.184082
485.973	-0.181305
486.973	-0.178619
487.973	-0.176025
488.973	-0.173523
489.973	-0.171082
490.973	-0.168701
491.973	-0.166412
492.973	-0.164185
493.973	-0.162018
494.973	-0.159882
495.973	-0.157837
496.973	-0.155853
497.973	-0.15387
498.973	-0.151947
499.973	-0.150085
500.973	-0.148224
501.973	-0.146423
502.973	-0.144653
503.973	-0.142914
504.973	-0.141205
505.973	-0.139496
506.973	-0.137817
507.973	-0.136169
508.973	-0.134521
509.973	-0.132904
510.973	-0.131317
511.973	-0.12973
512.973	-0.128143
513.973	-0.126587
514.973	-0.125
515.973	-0.123474
516.973	-0.121948
517.973	-0.120392
518.973	-0.118866
519.973	-0.11731
520.973	-0.115753
521.973	-0.114227
522.973	-0.112671
523.973	-0.111115
524.973	-0.109589
525.973	-0.108032
526.973	-0.106445
527.973	-0.104889
528.973	-0.103302
529.973	-0.101715
530.973	-0.100128
531.973	-0.0985413
532.973	-0.0969543
533.973	-0.0953064
534.973	-0.09375
535.973	-0.0921326
536.973	-0.0904846
537.973	-0.0888367
538.973	-0.0871582
539.973	-0.0855103
540.973	-0.0838318
541.973	-0.0821533
542.973	-0.0804443
543.973	-0.0787354
544.973	-0.0770264
545.973	-0.0753174
546.973	-0.0736084
547.973	-0.0718689
548.973	-0.0701599
549.973	-0.0684204
550.973	-0.0666809
551.973	-0.0649414
552.973	-0.0631714
553.973	-0.0614014
554.973	-0.0596313
555.973	-0.0578308
556.973	-0.0560608
557.973	-0.0542603
558.973	-0.0524597
559.973	-0.0506592
560.973	-0.0488281
561.973	-0.0469879
562.973	-0.0451355
563.973	-0.0432587
564.973	-0.0413635
565.973	-0.0394958
566.973	-0.0375854
567.973	-0.0356415
568.973	-0.03367
569.973	-0.0316772
570.973	-0.0296509
571.973	-0.0276062
572.973	-0.0255707
573.973	-0.023465
574.973	-0.0213623
575.973	-0.0192261
576.973	-0.0170532
577.973	-0.0148773
578.973	-0.0126221
579.973	-0.0103455
580.973	-0.00802917
581.973	-0.00566711
582.973	-0.00323181
583.973	-0.000787354
584.973	0.00171204
585.973	0.0042511
586.973	0.00683289
587.973	0.00947266
588.973	0.0121613
589.973	0.0149231
590.973	0.0177338
591.973	0.0205933
592.973	0.0235138
593.973	0.0265106
594.973	0.0295593
595.973	0.0326752
596.973	0.0358337
597.973	0.0390747
598.973	0.0423645
599.973	0.0457397
600.973	0.0491791
601.973	0.0527039