Folder: electrochromicfilms/Edgar/20240515/20240515/EC_measurements/Sample_20240502_B/EIS/data

File: EIS_WO3_ITO_20240502_B_0p2V_vs_ref
Frequency (Hz)	Z' (Ω)	-Z'' (Ω)	Z (Ω)	-Phase (°)	Time (s)
10000	446.089	34.2745	447.404	4.39359	318.426
7943.3	300.671	24.7145	301.685	4.69903	321.176
6309.6	301.765	22.3723	302.593	4.24005	322.251
5011.9	302.764	20.9166	303.486	3.95202	323.416
3981.1	303.914	20.2511	304.588	3.81222	324.586
3162.3	305.21	20.2685	305.883	3.79933	325.741
2511.9	306.639	20.9483	307.354	3.90813	326.911
1995.3	308.181	22.2245	308.982	4.12475	328.082
1584.9	309.971	24.1324	310.909	4.45173	329.222
1258.9	311.804	26.7872	312.953	4.91024	330.367
1000	314.249	29.9402	315.672	5.44245	331.542
794.33	316.768	34.0098	318.589	6.12809	332.802
630.96	319.679	38.9252	322.041	6.94234	333.952
501.19	323.003	44.861	326.104	7.90706	335.132
398.11	326.702	52.071	330.825	9.05585	336.267
316.23	330.953	60.6032	336.456	10.3769	337.442
251.19	335.841	70.9058	343.244	11.9217	338.637
199.53	341.427	83.2058	351.419	13.696	339.807
158.49	347.379	97.8526	360.897	15.7319	341.002
125.89	353.966	115.176	372.233	18.0242	342.277
100	361.699	136.342	386.543	20.6539	343.502
79.433	369.613	162.014	403.562	23.6694	344.772
63.096	378.191	191.579	423.947	26.8653	346.097
50.119	388.366	232.801	452.796	30.94	347.322
39.811	399.519	281.661	488.824	35.1838	356.272
31.623	414.445	343.018	537.983	39.6131	357.742
25.119	433.703	418.651	602.799	43.9883	359.162
19.953	459.774	512.221	688.304	48.0886	360.897
15.849	497.452	625.278	799.018	51.4953	362.687
12.589	550.648	760.9	939.245	54.1075	364.512
10	623.711	919.368	1110.97	55.8465	366.647
7.9433	720.816	1100.3	1315.38	56.7708	368.812
6.3096	848.202	1302.93	1554.7	56.9361	372.847
5.0119	1000.69	1516.25	1816.7	56.5762	376.077
3.9811	1180.56	1748.79	2109.97	55.9779	378.252
3.1623	1377.51	1997.54	2426.46	55.4098	380.652
2.5119	1589.59	2275.31	2775.58	55.0609	383.118
1.9953	1814.98	2593.78	3165.73	55.0178	385.663
1.5849	2049.38	2969.75	3608.24	55.3911	388.218
1.2589	2294.71	3426.17	4123.63	56.1875	390.908
1	2557.48	3972.36	4724.44	57.2258	394.018
0.79433	2849.85	4639.53	5444.9	58.4395	397.148
0.63096	3176.37	5457.34	6314.42	59.799	400.533
0.50119	3536.98	6455.58	7361.03	61.2819	404.248
0.39811	3960.14	7682.82	8643.4	62.731	408.318
0.31623	4477.09	9201.42	10232.8	64.054	412.973
0.25119	5089.98	11041.8	12158.5	65.2516	418.288
0.19953	5850.79	13297	14527.3	66.2501	424.423
0.15849	6866.98	16053.3	17460.3	66.8406	431.498
0.12589	8170.62	19339	20994.1	67.0962	439.939
0.1	9822.51	23386.2	25365.3	67.217	449.994
0.079433	12230.6	27999.1	30553.8	66.4033	475.499
0.063096	15242.5	33852.4	37125.8	65.7597	490.125
0.050119	19403.7	40359	44781.2	64.3228	508.07
0.039811	25145.9	47619.9	53851.3	62.1635	530.17
0.031623	32838.5	55618.1	64589	59.4412	557.421
0.025119	42888	63752.6	76836	56.0703	591.186
0.019953	55781.5	71258.7	90495.2	51.946	633.062
0.015849	70666	77010.2	104519	47.4599	685.333
0.012589	88267.5	80161.8	119235	42.2447	750.574
0.01	105869	79566	132435	36.9266	832.171

File: EIS_WO3_ITO_20240502_B_m0p6V_vs_ref
Frequency (Hz)	Z' (Ω)	-Z'' (Ω)	Z (Ω)	-Phase (°)	Time (s)
10000	287.413	23.2301	288.35	4.62087	1240.77
7943.3	288.029	19.1488	288.665	3.80354	1241.86
6309.6	288.595	15.941	289.035	3.16161	1243.04
5011.9	289.038	13.4459	289.351	2.66344	1244.22
3981.1	289.488	11.5112	289.717	2.27711	1245.38
3162.3	289.905	10.0405	290.079	1.98358	1246.54
2511.9	290.361	8.94349	290.499	1.76423	1247.73
1995.3	290.992	8.14922	291.106	1.60415	1248.9
1584.9	291.374	7.59415	291.473	1.49297	1250.03
1258.9	292	7.08101	292.086	1.38915	1251.18
1000	292.614	7.07464	292.699	1.38499	1252.35
794.33	293.256	7.07227	293.341	1.3815	1253.63
630.96	293.838	7.13837	293.924	1.39165	1254.79
501.19	294.623	7.42257	294.717	1.44317	1255.97
398.11	295.331	7.77352	295.433	1.50776	1257.12
316.23	296.48	8.20918	296.594	1.58605	1258.3
251.19	297.281	8.72445	297.409	1.681	1259.5
199.53	298.581	9.3323	298.727	1.79022	1260.67
158.49	299.8	10.2698	299.976	1.96193	1261.87
125.89	301.16	10.9734	301.36	2.08677	1263.11
100	303.062	11.8384	303.294	2.23699	1264.35
79.433	304.759	12.8081	305.028	2.40656	1265.62
63.096	307.155	12.2293	307.398	2.28002	1266.94
50.119	308.81	14.221	309.138	2.63666	1276.67
39.811	311.091	14.9444	311.449	2.7503	1285.54
31.623	313.576	15.3234	313.95	2.79762	1287.01
25.119	315.692	15.8324	316.089	2.87106	1288.43
19.953	317.796	16.5515	318.227	2.98139	1290.18
15.849	319.934	17.0865	320.39	3.05705	1291.96
12.589	322.285	18.0034	322.788	3.19732	1293.78
10	324.284	18.9222	324.835	3.33947	1295.93
7.9433	326.682	20.2549	327.309	3.54791	1298.1
6.3096	328.707	21.7229	329.424	3.78095	1300.29
5.0119	331.024	23.6825	331.87	4.09216	1302.59
3.9811	333.484	25.9731	334.494	4.45345	1304.92
3.1623	335.922	28.777	337.152	4.89633	1307.33
2.5119	338.805	32.2466	340.336	5.43689	1309.79
1.9953	341.685	36.6418	343.644	6.12094	1312.32
1.5849	344.822	41.5957	347.322	6.87833	1314.95
1.2589	348.349	47.7854	351.611	7.8109	1317.64
1	352.146	55.1047	356.432	8.89366	1320.82
0.79433	357.35	63.7595	362.994	10.1164	1323.89
0.63096	361.915	74.482	369.5	11.6291	1327.29
0.50119	366.589	86.6309	376.686	13.296	1330.95
0.39811	371.992	102.056	385.738	15.3416	1335.02
0.31623	380.016	122.33	399.22	17.8437	1339.68
0.25119	386.425	143.072	412.061	20.3169	1345
0.19953	394.475	169.634	429.402	23.2689	1351.14
0.15849	403.419	204.376	452.234	26.8672	1358.31
0.12589	418.396	244.538	484.617	30.3048	1366.75
0.1	423.446	290.623	513.584	34.4629	1376.84
0.079433	443.823	357.025	569.601	38.8143	1388.91
0.063096	446.911	438.708	626.254	44.4693	1403.55
0.050119	461.323	525.891	699.557	48.742	1421.54
0.039811	492.218	650.567	815.791	52.8889	1443.64
0.031623	521.025	825.264	975.975	57.734	1470.9
0.025119	534.292	1037.37	1166.87	62.7494	1504.67
0.019953	549.404	1273.39	1386.85	66.6622	1546.64
0.015849	567.037	1569.36	1668.66	70.1343	1598.9
0.012589	578.626	1942	2026.37	73.4084	1664.14
0.01	761.217	2368.96	2488.25	72.1862	1745.65