Folder: electrochromicfilms/Edgar/20240517/20240517/electrodeposition_pulsed_potential_20240517_A (part 2)

File: pulses_2000_to_3000.txt
Time (s)	WE(1).Potential (V)	WE(1).Current (A)
2828.74	-0.697632	-0.0199249
2833.1	0.550079	-1.43433e-06
2837.42	0.549774	-5.12695e-06
2841.76	-0.697662	-0.0150543
2846.12	0.550293	-4.94385e-06
2850.44	0.549438	-2.31934e-06
2854.78	-0.698639	-0.0118439
2859.14	0.550385	-5.61523e-06
2863.46	0.550568	-9.70459e-06
2867.8	-0.698425	-0.00974426
2872.16	0.551117	-1.00708e-05
2876.48	0.549805	-4.97437e-06
2880.84	6.71387e-05	0.0112152
2885.18	0.549835	-2.56348e-06
2889.5	0.550323	-8.63647e-06
2893.86	0.00132751	0.00802307
2898.2	0.550507	-3.8147e-06
2902.52	0.549408	-5.5542e-06
2906.88	0.000823975	0.00585205
2911.22	0.549316	-2.10571e-06
2915.54	0.550842	-1.22681e-05
2919.9	0.00173035	0.00412689
2924.24	0.551086	-1.20544e-05
2928.56	0.550201	-9.73511e-06
2932.94	0.550507	0.0121765
2937.26	0.549896	-4.21143e-06
2941.58	0.550781	-1.30615e-05
2945.96	0.549347	0.000576782
2950.28	0.549622	-3.66211e-07
2954.6	0.549133	1.52588e-07
2958.98	0.549988	0.000132477
2963.3	0.550476	-6.89697e-06
2967.62	0.549866	-4.94385e-06
2972	0.549774	6.56738e-05
2976.32	0.550781	-1.11389e-05
2980.64	0.550537	-1.12e-05
2985.02	0.55069	3.27759e-05
2989.34	0.549896	-4.05884e-06
2993.66	0.549835	-5.67627e-06
2998.04	0.549713	2.6001e-05
3002.36	0.549622	-4.5166e-06
3006.68	0.550934	-1.3855e-05
3011.06	0.549683	1.69373e-05
3015.38	0.550598	-8.88062e-06
3019.7	0.550232	-5.88989e-06
3024.08	0.550629	8.30078e-06
3028.4	0.549561	-1.95313e-06
3032.72	0.551147	-1.50146e-05
3037.1	0.549286	1.21765e-05
3041.42	0.551147	-1.34888e-05
3045.74	0.549225	-4.27246e-07
3050.12	0.549316	1.17798e-05
3054.44	0.551056	-1.28174e-05
3058.76	0.551056	-1.55945e-05
3063.14	0.549286	9.15527e-06
3067.46	0.549377	-1.37329e-06
3071.78	0.549072	-1.70898e-06
3076.16	0.549225	7.78198e-06
3080.48	0.549591	-2.68555e-06
3084.8	0.549286	-1.5564e-06
3089.18	0.549988	2.44141e-07
3093.5	0.549652	-4.5166e-06
3097.84	-0.698242	-0.0205811
3102.2	0.549255	3.84521e-06
3106.52	0.549286	6.40869e-07
3110.86	-0.698242	-0.0158875
3115.22	0.549988	-3.32642e-06
3119.54	0.550446	-7.14111e-06
3123.88	-0.698669	-0.0127289
3128.24	0.549835	-1.80054e-06
3132.56	0.549561	-3.05176e-06
3136.9	-0.698425	-0.0105164
3141.26	0.550964	-1.00098e-05
3145.58	0.551056	-1.34277e-05
3149.94	0.0012146	0.0109253
3154.28	0.549316	1.80054e-06
3158.6	0.550323	-1.23291e-05
3162.96	-0.000100708	0.00801086
3167.3	0.549561	-3.05176e-08
3171.62	0.549866	-6.53076e-06
3175.98	0.000213623	0.00596893
3180.32	0.549774	-2.44141e-06
3184.64	0.550903	-1.3031e-05
3189	0.00144043	0.00434113
3193.34	0.549377	-2.74658e-07
3197.66	0.55069	-1.28784e-05
3202.04	0.550476	0.0134949
3206.36	0.550171	-5.70679e-06
3210.68	0.550995	-1.38245e-05
3215.06	0.551331	0.00137848
3219.38	0.550293	-6.40869e-06
3223.7	0.550568	-1.22375e-05
3228.08	0.550415	0.000220734
3232.4	0.549652	-1.0376e-06
3236.72	0.54953	-5.27954e-06
3241.1	0.549713	8.34961e-05
3245.42	0.550964	-1.12915e-05
3249.74	0.551056	-1.44958e-05
3254.12	0.550446	3.86963e-05
3258.44	0.550568	-8.94165e-06
3262.76	0.550385	-9.0332e-06
3267.14	0.549377	3.07617e-05
3271.46	0.549622	-1.09863e-06
3275.78	0.549225	-1.83105e-06
3280.16	0.550964	9.0332e-06
3284.48	0.551056	-1.23291e-05
3288.8	0.549683	-6.65283e-06
3293.18	0.550415	8.45337e-06
3297.5	0.550934	-1.33972e-05
3301.82	0.549408	-2.13623e-06
3306.2	0.549988	6.53076e-06
3310.52	0.549408	-1.64795e-06
3314.84	0.550629	-1.2146e-05
3319.22	0.550507	1.70898e-06
3323.54	0.549835	-1.52588e-06
3327.86	0.549896	-5.52368e-06
3332.24	0.549622	5.18799e-06
3336.56	0.549255	-1.61743e-06
3340.88	0.55011	-5.46265e-06
3345.26	0.551025	-6.16455e-06
3349.58	0.549133	-1.31226e-06
3353.9	0.550018	-8.08716e-06
3358.28	0.549561	3.93677e-06
3362.6	0.551025	-1.27869e-05
3366.94	-0.697479	-0.0212585
3371.3	0.550537	-3.50952e-06
3375.62	0.549255	6.10352e-08
3379.96	-0.697418	-0.0166443
3384.32	0.550323	-3.50952e-06
3388.64	0.5495	-6.04248e-06
3392.98	-0.698059	-0.0135498
3397.34	0.551117	-1.04065e-05
3401.66	0.550354	-9.09424e-06
3406	-0.696991	-0.0112915
3410.36	0.551056	-9.61304e-06
3414.68	0.551056	-1.40076e-05
3419.04	0.000964355	0.0105286
3423.38	0.550568	-5.34058e-06
3427.7	0.549255	-9.76562e-07
3432.06	7.62939e-05	0.00786743
3436.4	0.549286	1.0376e-06
3440.72	0.55014	-8.02612e-06
3445.08	0.000814819	0.00594696
3449.42	0.551117	-1.14746e-05
3453.74	0.549896	-6.43921e-06
3458.1	0.000518799	0.00442657
3462.44	0.549774	6.10352e-07
3466.76	0.550751	-1.18103e-05
3471.14	0.549713	0.0143951
3475.46	0.550079	-6.22559e-06
3479.78	0.551086	-1.36414e-05
3484.16	0.549927	0.00540527
3488.48	0.550018	-1.15967e-06
3492.8	0.549652	-3.66211e-06
3497.18	0.549591	0.000432739
3501.5	0.549866	-2.2583e-06
3505.82	0.549347	-5.49316e-07
3510.2	0.549164	0.000147491
3514.52	0.550995	-1.26343e-05
3518.84	0.550964	-1.21155e-05
3523.22	0.550079	5.93567e-05
3527.54	0.550903	-1.35498e-05
3531.86	0.549316	-9.76562e-07
3536.24	0.550964	2.5177e-05
3540.56	0.550507	-6.98853e-06
3544.88	0.549225	-1.80054e-06
3549.26	0.549896	2.07214e-05
3553.58	0.551025	-1.297e-05
3557.9	0.549988	-6.56128e-06
3562.28	0.549835	1.3092e-05
3566.6	0.550812	-1.42822e-05
3570.92	0.5495	-5.18799e-06
3575.3	0.549683	1.15051e-05
3579.62	0.549286	-2.44141e-07
3583.94	0.550446	-9.33838e-06
3588.32	0.550293	4.18091e-06
3592.64	0.550385	-9.24683e-06
3596.96	0.550049	-7.41577e-06
3601.34	0.549408	9.00269e-06
3605.66	0.549347	-8.23975e-07
3609.98	0.551056	-1.5625e-05
3614.36	0.549255	8.81958e-06
3618.68	0.549225	-2.01416e-06
3623	0.549835	-4.18091e-06
3627.38	0.550079	1.2207e-07
3631.7	0.55127	-1.5564e-05
3636.04	-0.696808	-0.0218842
3640.4	0.5495	3.63159e-06
3644.72	0.549469	-1.37329e-06
3649.06	-0.696899	-0.0173676
3653.42	0.550476	-2.38037e-06
3657.74	0.550079	-3.78418e-06
3662.08	-0.6987	-0.0143402
3666.44	0.55014	-3.05176e-06
3670.76	0.549652	-5.49316e-07
3675.1	-0.698578	-0.0120605
3679.46	0.550903	-8.45337e-06
3683.78	0.550659	-1.48315e-05
3688.14	0.00152588	0.0101288
3692.48	0.54953	3.20435e-06
3696.8	0.549438	-2.47192e-06
3701.16	0.000161743	0.00767822
3705.5	0.549774	-2.59399e-06
3709.82	0.551025	-1.41907e-05
3714.18	0.00167236	0.0059024
3718.52	0.549561	-1.09863e-06
3722.84	0.549866	-5.49316e-06
3727.2	0.000265503	0.00448364
3731.54	0.549255	4.27246e-07
3735.86	0.55072	-1.05591e-05
3740.24	0.550018	0.0151245
3744.56	0.549225	1.61743e-06
3748.88	0.550201	-6.7749e-06
3753.26	0.549042	0.00879822
3757.58	0.549286	1.0376e-06
3761.9	0.550018	-8.39233e-06
3766.28	0.551025	0.000782166
3770.6	0.549835	-7.75146e-06
3774.92	0.549957	-6.16455e-06
3779.3	0.551056	0.000248688
3783.62	0.549774	-6.40869e-06
3787.94	0.549286	-1.7395e-06
3792.32	0.550964	9.97925e-05
3796.64	0.550995	-1.39771e-05
3800.96	0.550018	-6.56128e-06
3805.34	0.550934	4.4281e-05
3809.66	0.549896	-5.61523e-06
3813.98	0.550201	-8.14819e-06
3818.36	0.550598	2.34375e-05
3822.68	0.549713	-4.76074e-06
3827	0.550079	-8.23975e-06
3831.38	0.549408	2.15149e-05
3835.7	0.550842	-1.35803e-05
3840.02	0.550537	-9.27734e-06
3844.4	0.549225	1.64795e-05
3848.72	0.549408	-3.9978e-06
3853.04	0.549805	-7.08008e-06
3857.42	0.550751	1.28174e-06
3861.74	0.549286	-6.10352e-07
3866.06	0.55072	-1.08643e-05
3870.44	0.549255	1.16577e-05
3874.76	0.550385	-8.8501e-06
3879.08	0.549377	-4.69971e-06
3883.46	0.550751	-3.60107e-06
3887.78	0.550354	-8.63647e-06
3892.1	0.550232	-8.30078e-06
3896.48	0.549286	5.46265e-06
3900.8	0.550079	-6.65283e-06
3905.14	-0.696655	-0.0224335
3909.5	0.549194	5.0354e-06
3913.82	0.54953	-2.34985e-06
3918.16	-0.696594	-0.0180206
3922.52	0.550995	-8.42285e-06
3926.84	0.550751	-1.2085e-05
3931.18	-0.698181	-0.0150726
3935.54	0.549561	1.46484e-06
3939.86	0.550415	-8.66699e-06
3944.2	-0.697418	-0.012796
3948.56	0.549927	-7.93457e-07
3952.88	0.55014	-7.23267e-06
3957.24	0.00158997	0.0097168
3961.58	0.550781	-8.20923e-06
3965.9	0.550934	-1.2085e-05
3970.26	0.00123596	0.00747528
3974.6	0.549622	-1.52588e-07
3978.92	0.550995	-1.24207e-05
3983.28	0.00196533	0.00581329
3987.62	0.551086	-1.09558e-05
3991.94	0.549316	-5.18799e-07
3996.3	0.000268555	0.00447266
4000.64	0.549347	-1.2207e-07
4004.96	0.549347	-5.49316e-07
4009.34	0.550323	0.0157074
4013.66	0.551056	-9.09424e-06
4017.98	0.54953	-3.38745e-06
4022.36	0.549011	0.01026
4026.68	0.549408	2.74658e-07
4031	0.550873	-1.30005e-05
4035.38	0.550415	0.00131653
4039.7	0.549622	-4.63867e-06
4044.02	0.551147	-1.48926e-05
4048.4	0.550507	0.000422607
4052.72	0.549225	6.10352e-07
4057.04	0.550262	-8.3313e-06
4061.42	0.54953	0.00019162
4065.74	0.549957	-6.83594e-06
4070.06	0.55014	-8.05664e-06
4074.44	0.549683	9.2041e-05
4078.76	0.549469	-2.83813e-06
4083.08	0.549622	-4.08936e-06
4087.46	0.549591	5.10559e-05
4091.78	0.549835	-4.36401e-06
4096.1	0.550385	-9.765625E-06
4100.48	0.550079	2.5238e-05
4104.8	0.550232	-9.27734e-06
4109.12	0.551147	-1.58997e-05
4113.5	0.55072	1.09558e-05
4117.82	0.549774	-6.86646e-06
4122.14	0.549835	-7.56836e-06
4126.52	0.550781	4.97437e-06
4128.7	0.550751	-1.38245e-05

File: pulses_3000_to_4000.txt
Time (s)	WE(1).Potential (V)	WE(1).Current (A)
4152.05	-0.696289	-0.0229156
4156.41	0.551056	-5.31006e-06
4160.73	0.549835	-4.45557e-06
4165.07	-0.697784	-0.0185303
4169.43	0.549286	3.32642e-06
4173.75	0.550323	-6.19507e-06
4178.09	-0.696747	-0.0156586
4182.45	0.550629	-5.06592e-06
4186.77	0.550842	-1.46484e-05
4191.11	-0.698517	-0.0134033
4195.47	0.550537	-5.52368e-06
4199.79	0.550201	-8.17871e-06
4204.15	0.00137634	0.00933838
4208.49	0.550812	-8.23975e-06
4212.81	0.550629	-1.20239e-05
4217.17	0.00124207	0.00725555
4221.51	0.550537	-5.31006e-06
4225.83	0.549438	-4.57764e-07
4230.19	0.00162354	0.00569031
4234.53	0.550079	-3.05176e-06
4238.85	0.549286	-2.31934e-06
4243.21	0.000881958	0.00441345
4247.55	0.550964	-9.06372e-06
4251.87	0.550995	-1.297e-05
4256.25	0.549866	0.0160492
4260.57	0.550964	-9.91821e-06
4264.89	0.549622	-3.69263e-06
4269.27	0.549133	0.0111115
4273.59	0.55069	-8.08716e-06
4277.91	0.550842	-1.51062e-05
4282.29	0.549408	0.00204315
4286.61	0.550812	-1.00403e-05
4290.93	0.550293	-8.75854e-06
4295.31	0.549255	0.000614929
4299.63	0.549316	-1.09863e-06
4303.95	0.5495	-3.78418e-06
4308.33	0.549377	0.000277405
4312.65	0.550415	-7.8125e-06
4316.97	0.5495	-1.95313e-06
4321.35	0.550659	0.000136505
4325.67	0.551056	-1.23901e-05
4329.99	0.551056	-1.37329e-05
4334.37	0.550018	7.59277e-05
4338.69	0.550171	-7.35474e-06
4343.01	0.5495	-3.32642e-06
4347.39	0.549774	4.19006e-05
4351.71	0.549988	-3.78418e-06
4356.03	0.5495	-2.71606e-06
4360.41	0.551025	1.80054e-05
4364.73	0.549713	-3.44849e-06
4369.05	0.551056	-1.35803e-05
4373.43	0.549255	2.02332e-05
4377.75	0.550385	-9.15527e-06
4382.07	0.550476	-9.70459e-06
4386.45	0.551056	3.66211e-06
4390.77	0.549377	-2.44141e-06
4395.09	0.549927	-8.69751e-06
4399.47	0.551056	-8.8501e-07
4403.79	0.549561	-2.47192e-06
4408.11	0.549408	-1.89209e-06
4412.49	0.55011	4.57764e-07
4416.81	0.549774	-2.41089e-06
4421.15	-0.697052	-0.023291
4425.51	0.550537	-2.01416e-06
4429.83	0.549377	-5.49316e-07
4434.17	-0.69632	-0.019046
4438.53	0.549561	5.85937e-06
4442.85	0.550537	-1.04675e-05
4447.19	-0.696838	-0.016217
4451.55	0.549286	4.45557e-06
4455.87	0.550842	-1.25427e-05
4460.21	-0.698608	-0.0140015
4464.57	0.549286	4.08936e-06
4468.89	0.550507	-1.12305e-05
4473.25	0.00136108	0.008984375
4477.59	0.550781	-7.17163e-06
4481.91	0.55014	-5.76782e-06
4486.27	0.00136108	0.00706573
4490.61	0.549561	-7.93457e-07
4494.93	0.550751	-1.3031e-05
4499.29	0.00195007	0.00558624
4503.63	0.549561	-3.35693e-07
4507.95	0.550964	-1.24817e-05
4512.31	0.00182495	0.00436462
4516.65	0.550995	-1.171875E-05
4520.97	0.549255	1.89209e-06
4525.35	0.54895	0.0164429
4529.67	0.550262	-6.71387e-06
4533.99	0.550903	-1.26343e-05
4538.37	0.549988	0.0118713
4542.69	0.550049	-3.11279e-06
4547.01	0.549896	-4.5166e-06
4551.39	0.549957	0.00380585
4555.71	0.550446	-6.86646e-06
4560.03	0.551086	-1.17493e-05
4564.41	0.55072	0.000872192
4568.73	0.549133	-3.05176e-08
4573.05	0.549744	-2.34985e-06
4577.43	0.549377	0.000407379
4581.75	0.549622	-2.19727e-06
4586.07	0.550354	-7.01904e-06
4590.45	0.55011	0.000213135
4594.77	0.550476	-9.61304e-06
4599.09	0.54953	-2.74658e-06
4603.47	0.549835	0.000122101
4607.79	0.550323	-7.17163e-06
4612.11	0.549561	-3.66211e-06
4616.49	0.550751	6.6803e-05
4620.81	0.550507	-1.01624e-05
4625.13	0.550262	-7.38525e-06
4629.51	0.549561	4.71497e-05
4633.83	0.550812	-1.14746e-05
4638.15	0.550995	-1.45874e-05
4642.53	0.550964	1.88293e-05
4646.85	0.55014	-5.21851e-06
4651.17	0.551208	-1.33972e-05
4655.55	0.549622	1.86462e-05
4659.87	0.551056	-1.33362e-05
4664.19	0.550201	-8.39233e-06
4668.57	0.550018	9.67407e-06
4672.89	0.549469	-3.93677e-06
4677.21	0.549469	-2.65503e-06
4681.59	0.55014	4.97437e-06
4685.91	0.550568	-1.26038e-05
4690.25	-0.697876	-0.0236237
4694.61	0.551056	-2.92969e-06
4698.93	0.549194	1.2207e-07
4703.27	-0.696411	-0.0195343
4707.63	0.5495	5.12695e-06
4711.95	0.551178	-1.02844e-05
4716.29	-0.698029	-0.0167572
4720.65	0.549652	1.95313e-06
4724.97	0.550995	-1.25732e-05
4729.31	-0.697052	-0.0145935
4733.67	0.550781	-5.92041e-06
4737.99	0.551056	-1.29089e-05
4742.35	3.05176e-06	0.00857849
4746.69	0.551147	-9.73511e-06
4751.01	0.54953	-5.98145e-06
4755.37	0.00020752	0.00679321
4759.71	0.549255	2.89917e-06
4764.03	0.550018	-8.17871e-06
4768.39	0.00192871	0.00540588
4772.73	0.550323	-3.78418e-06
4777.05	0.550598	-8.69751e-06
4781.41	0.00144958	0.0042572
4785.75	0.551086	-1.12915e-05
4790.07	0.550842	-1.17798e-05
4794.46	0.548492	0.0167023
4798.78	0.550598	-6.7749e-06
4803.1	0.549469	-1.67847e-06
4807.48	0.549835	0.0124664
4811.8	0.549866	-2.16675e-06
4816.12	0.549469	-2.16675e-06
4820.5	0.550629	0.00687012
4824.82	0.549286	7.01904e-07
4829.14	0.55069	-1.11694e-05
4833.52	0.550354	0.00120544
4837.84	0.549561	-1.5564e-06
4842.16	0.549377	-1.70898e-06
4846.54	0.549957	0.000556335
4850.86	0.549286	-7.62939e-07
4855.18	0.549469	-2.28882e-06
4859.56	0.549286	0.000309845
4863.88	0.550415	-7.26318e-06
4868.2	0.550995	-1.3855e-05
4872.58	0.549347	0.000182404
4876.9	0.549591	-3.54004e-06
4881.22	0.551025	-1.41296e-05
4885.6	0.551056	0.0001008
4889.92	0.550079	-7.17163e-06
4894.24	0.550659	-1.31836e-05
4898.62	0.549347	7.28149e-05
4902.94	0.549988	-9.0332e-06
4907.26	0.549561	-3.08228e-06
4911.64	0.550629	3.60413e-05
4915.96	0.549225	-4.88281e-07
4920.28	0.550323	-8.97217e-06
4924.66	0.550842	2.09045e-05
4928.98	0.549286	-1.52588e-07
4933.3	0.550476	-1.07422e-05
4937.68	0.550842	1.00098e-05
4942	0.549683	-3.05176e-06
4946.32	0.549835	-6.28662e-06
4950.7	0.550415	8.27026e-06
4955.02	0.549347	-7.01904e-07
4959.36	-0.696411	-0.0239014
4963.72	0.550568	5.98145e-06
4968.04	0.550568	-1.04675e-05
4972.38	-0.697662	-0.0199158
4976.74	0.549347	9.27734e-06
4981.06	0.549988	-3.84521e-06
4985.4	-0.697205	-0.017218
4989.76	0.550751	-3.05176e-06
4994.08	0.549316	-1.15967e-06
4998.42	-0.697296	-0.0150726
5002.78	0.550018	-2.92969e-06
5007.1	0.550873	-1.25122e-05
5011.46	0.00157776	0.00815125
5015.8	0.549316	4.88281e-06
5020.12	0.549591	-3.23486e-06
5024.48	0.000708008	0.00651581
5028.82	0.549866	-5.49316e-07
5033.14	0.549683	-2.13623e-07
5037.5	0.000378418	0.00523499
5041.84	0.551025	-9.21631e-06
5046.16	0.551056	-1.15662e-05
5050.52	0.001474	0.0041507
5054.86	0.550537	-7.04956e-06
5059.18	0.549408	-2.89917e-06
5063.56	0.550018	0.0168671
5067.88	0.550903	-9.39941e-06
5072.2	0.550171	-4.02832e-06
5076.58	0.549744	0.0129303
5080.9	0.5495	1.19019e-06
5085.22	0.550629	-8.72803e-06
5089.6	0.549103	0.00837097
5093.92	0.549561	-1.28174e-06
5098.24	0.549286	-8.8501e-07
5102.62	0.550568	0.00155273
5106.94	0.550842	-1.03149e-05
5111.26	0.549591	-3.69263e-06
5115.64	0.550629	0.000707397
5119.96	0.549194	1.15967e-06
5124.28	0.549469	-2.19727e-06
5128.66	0.550354	0.000393463
5132.98	0.550598	-9.24683e-06
5137.3	0.549408	-1.7395e-06
5141.68	0.549316	0.0002421875
5146	0.549438	-2.71606e-06
5150.32	0.549927	-7.75146e-06
5154.7	0.549469	0.000154297
5159.02	0.550507	-1.01624e-05
5163.34	0.550171	-8.66699e-06
5167.72	0.550934	9.03015e-05
5172.04	0.549438	-2.71606e-06
5176.36	0.549316	-1.43433e-06
5180.74	0.550354	6.22559e-05
5185.06	0.550293	-7.1106e-06
5189.38	0.550934	-1.51367e-05
5193.76	0.551086	3.47595e-05
5198.08	0.549652	-2.31934e-06
5202.4	0.549805	-5.67627e-06
5206.78	0.550293	2.59094e-05
5211.1	0.549377	-2.13623e-07
5215.42	0.54953	-3.54004e-06
5219.8	0.550446	1.52893e-05
5224.12	0.54953	-2.65503e-06
5228.46	-0.697754	-0.0240143
5232.82	0.550262	9.06372e-06
5237.14	0.549622	-3.54004e-06
5241.48	-0.697784	-0.0201508
5245.84	0.550293	3.41797e-06
5250.16	0.549316	-5.18799e-07
5254.5	-0.697632	-0.0175262
5258.86	0.550049	3.90625e-06
5263.18	0.550385	-9.97925e-06
5267.52	-0.698334	-0.0154358
5271.88	0.5495	7.2937e-06
5276.2	0.551147	-1.42822e-05
5280.56	0.000790405	0.00782166
5284.9	0.549561	4.82178e-06
5289.22	0.550415	-9.58252e-06
5293.58	0.000933838	0.00628296
5297.92	0.549652	2.56348e-06
5302.24	0.550354	-1.0376e-05
5306.6	0.00105896	0.00506744
5310.94	0.55014	-1.83105e-06
5315.26	0.549377	-1.46484e-06
5319.62	0.000332642	0.00403687
5323.96	0.549377	2.50244e-06
5328.28	0.550446	-9.00269e-06
5332.66	0.548798	0.016983
5336.98	0.549316	2.31934e-06
5341.3	0.549957	-5.88989e-06
5345.68	0.549438	0.0132233
5350	0.551025	-1.02234e-05
5354.32	0.550598	-1.23291e-05
5358.7	0.549164	0.00910034
5363.02	0.550079	-1.52588e-07
5367.34	0.551025	-1.31836e-05
5371.72	0.550934	0.00199829
5376.04	0.549622	-3.57056e-06
5380.36	0.550232	-7.35474e-06
5384.74	0.550323	0.00088562
5389.06	0.549927	-4.66919e-06
5393.38	0.549316	-4.27246e-07
5397.76	0.549316	0.000504761
5402.08	0.549957	-4.57764e-06
5406.4	0.550903	-1.18103e-05
5410.78	0.550507	0.000301056
5415.1	0.549866	-5.5542e-06
5419.42	0.549469	7.93457e-07
5423.8	0.549835	0.000197449
5428.12	0.550873	-1.03455e-05
5432.44	0.549286	-2.7771e-06
5436.82	0.549652	0.000132446
5441.14	0.550323	-8.14819e-06
5445.46	0.550323	-7.2937e-06
5449.84	0.549561	8.96301e-05
5452.02	0.550415	-8.75854e-06