Folder: electrochromicfilms/Edgar/20240517/20240517/electrodeposition_pulsed_potential_20240517_A

File: OCP_1
Time (s)	WE(1).Potential (V)
2.26674	0.509949
3.26674	0.510254
4.26674	0.510864
5.26674	0.511169
6.26674	0.51178
7.26674	0.512085
8.26674	0.51239
9.26674	0.513
10.2667	0.513306
11.2667	0.513611
12.2667	0.513916
13.2667	0.514526
14.2667	0.514832
15.2667	0.515137
16.2667	0.515442
17.2667	0.515747
18.2667	0.516357
19.2667	0.516663
20.2667	0.516968
21.2667	0.517273
22.2667	0.517578
23.2667	0.517883
24.2667	0.518494
25.2667	0.518799
26.2667	0.519104
27.2667	0.519409
28.2667	0.519714
29.2667	0.52002
30.2667	0.520325
31.2667	0.52063
32.2667	0.520935
33.2667	0.52124
34.2667	0.521545
35.2667	0.521851
36.2667	0.522156
37.2667	0.522461
38.2667	0.522766
39.2667	0.523071
40.2667	0.523376
41.2667	0.523682
42.2667	0.523987
43.2667	0.524292
44.2667	0.524292
45.2667	0.524597
46.2667	0.524902
47.2667	0.525208
48.2667	0.525513
49.2667	0.525818
50.2667	0.526123
51.2667	0.526428
52.2667	0.526428
53.2667	0.526733
54.2667	0.527039
55.2667	0.527344
56.2667	0.527649
57.2667	0.527954
58.2667	0.528259
59.2667	0.528259
60.2667	0.528564
61.2667	0.52887
62.2667	0.529175
63.2667	0.52948
64.2667	0.52948
65.2667	0.529785
66.2667	0.53009
67.2667	0.530396
68.2667	0.530396
69.2667	0.530701
70.2667	0.531006
71.2667	0.531311
72.2667	0.531311
73.2667	0.531616
74.2667	0.531921
75.2667	0.531921
76.2667	0.532227
77.2667	0.532532
78.2667	0.532837
79.2667	0.532837
80.2667	0.533142
81.2667	0.533447
82.2667	0.533752
83.2667	0.533752
84.2667	0.534058
85.2667	0.534363
86.2667	0.534363
87.2667	0.534668
88.2667	0.534973
89.2667	0.534973
90.2667	0.535278
91.2667	0.535583
92.2667	0.535583
93.2667	0.535889
94.2667	0.535889
95.2667	0.536194
96.2667	0.536499
97.2667	0.536499
98.2667	0.536804
99.2667	0.537109
100.267	0.537109
101.267	0.537415
102.267	0.537415
103.267	0.53772
104.267	0.538025
105.267	0.538025
106.267	0.53833
107.267	0.53833
108.267	0.538635
109.267	0.53894
110.267	0.53894
111.267	0.539246
112.267	0.539246
113.267	0.539551
114.267	0.539856
115.267	0.539856
116.267	0.540161
117.267	0.540161
118.267	0.540466
119.267	0.540466
120.267	0.540771
121.267	0.540771
122.267	0.541077
123.267	0.541382
124.267	0.541382
125.267	0.541687
126.267	0.541687
127.267	0.541992
128.267	0.541992
129.267	0.542297
130.267	0.542297
131.267	0.542603
132.267	0.542603
133.267	0.542908
134.267	0.542908
135.267	0.543213
136.267	0.543213
137.267	0.543518
138.267	0.543518
139.267	0.543823
140.267	0.543823
141.267	0.544128
142.267	0.544128
143.267	0.544434
144.267	0.544434
145.267	0.544739
146.267	0.544739
147.267	0.545044
148.267	0.545044
149.267	0.545349
150.267	0.545349
151.267	0.545654
152.267	0.545654
153.267	0.545959
154.267	0.545959
155.267	0.546265
156.267	0.546265
157.267	0.54657
158.267	0.54657
159.267	0.546875
160.267	0.546875
161.267	0.54718
162.267	0.54718
163.267	0.547485
164.267	0.547485
165.267	0.547485
166.267	0.547791
167.267	0.547791
168.267	0.548096
169.267	0.548096
170.267	0.548401
171.267	0.548401
172.267	0.548706
173.267	0.548706
174.267	0.548706
175.267	0.549011
176.267	0.549011
177.267	0.549316
178.267	0.549316
179.267	0.549622
180.267	0.549622
181.267	0.549622

File: OCP_3
Time (s)	WE(1).Potential (V)
8123.52	0.544434
8124.52	0.53894
8125.52	0.533752
8126.52	0.529175
8127.52	0.524597
8128.52	0.520325
8129.52	0.516663
8130.52	0.513
8131.52	0.509644
8132.52	0.506287
8133.52	0.50354
8134.52	0.500793
8135.52	0.498077
8136.52	0.495728
8137.52	0.493591
8138.52	0.491608
8139.52	0.489807
8140.52	0.488098
8141.52	0.486572
8142.52	0.485107
8143.52	0.483795
8144.52	0.482574
8145.52	0.481476
8146.52	0.480438
8147.52	0.479462
8148.52	0.478577
8149.52	0.477753
8150.52	0.47699
8151.52	0.476379
8152.52	0.476349
8153.52	0.475983
8154.52	0.475403
8155.52	0.474823
8156.52	0.474304
8157.52	0.473816
8158.52	0.473389
8159.52	0.472992
8160.52	0.472626
8161.52	0.47229
8162.52	0.471954
8163.52	0.47168
8164.52	0.471466
8165.52	0.471283
8166.52	0.4711
8167.52	0.470947
8168.52	0.470764
8169.52	0.470612
8170.52	0.470459
8171.52	0.470306
8172.52	0.470215
8173.52	0.470093
8174.52	0.469971
8175.52	0.469879
8176.52	0.469818
8177.52	0.469757
8178.52	0.469696
8179.52	0.469635
8180.52	0.469604
8181.52	0.469543
8182.52	0.46936
8183.52	0.469482
8184.52	0.469452
8185.52	0.469421
8186.52	0.469391
8187.52	0.46936
8188.52	0.46936
8189.52	0.46933
8190.52	0.46936
8191.52	0.46936
8192.52	0.469391
8193.52	0.469391
8194.52	0.469391
8195.52	0.469391
8196.52	0.469421
8197.52	0.469421
8198.52	0.469421
8199.52	0.469452
8200.52	0.469513
8201.52	0.469513
8202.52	0.469543
8203.52	0.469574
8204.52	0.469604
8205.52	0.469635
8206.52	0.469666
8207.52	0.469696
8208.52	0.469727
8209.52	0.469757
8210.52	0.469788
8211.52	0.469849
8212.52	0.469849
8213.52	0.46991
8214.52	0.46991
8215.52	0.46994
8216.52	0.469971
8217.52	0.469971
8218.52	0.469971
8219.52	0.470001
8220.52	0.470032
8221.52	0.470062
8222.52	0.470093
8223.52	0.470154
8224.52	0.470184
8225.52	0.470245
8226.52	0.470245
8227.52	0.470276
8228.52	0.470306
8229.52	0.470337
8230.52	0.470398
8231.52	0.470398
8232.52	0.470459
8233.52	0.47052
8234.52	0.470551
8235.52	0.470581
8236.52	0.470612
8237.52	0.470642
8238.52	0.470703
8239.52	0.470734
8240.52	0.470795
8241.52	0.470856
8242.52	0.470886
8243.52	0.470917
8244.52	0.471008
8245.52	0.471039
8246.52	0.4711
8247.52	0.47113
8248.52	0.471161
8249.52	0.471191
8250.52	0.471252
8251.52	0.471252
8252.52	0.471283
8253.52	0.471344
8254.52	0.471375
8255.52	0.471405
8256.52	0.471466
8257.52	0.471497
8258.52	0.471558
8259.52	0.471588
8260.52	0.471619
8261.52	0.471649
8262.52	0.47168
8263.52	0.471741
8264.52	0.471771
8265.52	0.471802
8266.52	0.471863
8267.52	0.471924
8268.52	0.472015
8269.52	0.472046
8270.52	0.472076
8271.52	0.472137
8272.52	0.472168
8273.52	0.472229
8274.52	0.472321
8275.52	0.472351
8276.52	0.472412
8277.52	0.472443
8278.52	0.472504
8279.52	0.472534
8280.52	0.472565
8281.52	0.472626
8282.52	0.472687
8283.52	0.472778
8284.52	0.472809
8285.52	0.47287
8286.52	0.4729
8287.52	0.472931
8288.52	0.472961
8289.52	0.473022
8290.52	0.473053
8291.52	0.473114
8292.52	0.473145
8293.52	0.473206
8294.52	0.473206
8295.52	0.473267
8296.52	0.473328
8297.52	0.473358
8298.52	0.473389
8299.52	0.47345
8300.52	0.47348
8301.52	0.47348
8302.52	0.473541

File: pulses_0_to_1000.txt
Time (s)	WE(1).Potential (V)	WE(1).Current (A)
182.062	-0.698425	-0.00346466
186.422	0.550201	-8.3313e-06
190.742	0.550262	-8.20923e-06
195.082	-0.698456	-0.00267029
199.442	0.550201	-5.31006e-06
203.762	0.550232	-8.57544e-06
208.102	-0.698425	-0.00256592
212.462	0.550171	-3.8147e-06
216.782	0.550171	-6.5918e-06
221.122	-0.698486	-0.00252869
225.482	0.550201	-3.90625e-06
229.802	0.550201	-5.0354e-06
234.162	0.00115662	0.00038031
238.502	0.550201	-3.08228e-06
242.822	0.550201	-6.13403e-06
247.182	0.00113831	0.000135223
251.522	0.550232	-1.7395e-06
255.842	0.55014	-6.073e-06
260.202	0.00110779	7.51038e-05
264.542	0.550232	-1.83105e-06
268.862	0.550232	-4.15039e-06
273.222	0.00109863	4.66309e-05
277.562	0.550171	-1.61743e-06
281.882	0.550232	-4.88281e-06
286.262	0.550201	9.36584e-05
290.582	0.550171	-2.50244e-06
294.902	0.550201	-5.5542e-06
299.282	0.550232	4.65088e-05
303.602	0.550232	-2.16675e-06
307.922	0.550171	-5.40161e-06
312.302	0.55014	2.97852e-05
316.622	0.550232	-2.34985e-06
320.942	0.550232	-5.85937e-06
325.322	0.55014	2.06604e-05
329.642	0.550171	-3.54004e-06
333.962	0.550201	-5.06592e-06
338.342	0.55014	1.57166e-05
342.662	0.550171	-4.42505e-06
346.982	0.550201	-5.76782e-06
351.362	0.550201	1.14746e-05
355.682	0.55014	-3.8147e-06
360.002	0.550171	-7.14111e-06
364.382	0.550171	7.65991e-06
368.702	0.550171	-4.85229e-06
373.022	0.550171	-6.01196e-06
377.402	0.550171	5.09644e-06
381.722	0.550201	-4.5166e-06
386.042	0.550201	-6.43921e-06
390.422	0.550201	4.21143e-06
394.742	0.550171	-5.37109e-06
399.062	0.550201	-6.19507e-06
403.442	0.550201	2.86865e-06
407.762	0.550201	-4.63867e-06
412.082	0.550201	-6.74438e-06
416.462	0.550171	2.28882e-06
420.782	0.550171	-4.88281e-06
425.102	0.55011	-7.17163e-06
429.482	0.550201	6.71387e-07
433.802	0.550232	-5.15747e-06
438.122	0.550171	-7.23267e-06
442.502	0.55014	-1.31226e-06
446.822	0.550201	-5.5542e-06
451.162	-0.698273	-0.00613434
455.522	0.550171	-1.2207e-06
459.842	0.550171	-5.92041e-06
464.182	-0.698242	-0.00413696
468.542	0.550171	-1.64795e-06
472.862	0.550171	-6.56128e-06
477.202	-0.698303	-0.00350464
481.562	0.550171	-1.95313e-06
485.882	0.550171	-5.40161e-06
490.222	-0.698334	-0.00322693
494.582	0.550171	-3.11279e-06
498.902	0.550232	-4.97437e-06
503.262	0.00124207	0.00424561
507.602	0.55014	-3.41797e-06
511.922	0.550171	-6.83594e-06
516.282	0.00115967	0.000438934
520.622	0.55014	-3.35693e-06
524.942	0.550201	-6.31714e-06
529.302	0.00110168	0.000121643
533.642	0.55014	-3.78418e-06
537.962	0.550201	-6.71387e-06
542.322	0.00108948	5.08423e-05
546.662	0.550201	-3.54004e-06
550.982	0.550171	-5.76782e-06
555.362	0.550232	9.07593e-05
559.682	0.550201	-3.9978e-06
564.002	0.55011	-7.01904e-06
568.382	0.55014	4.01306e-05
572.702	0.55014	-5.34058e-06
577.022	0.550201	-6.5918e-06
581.402	0.550171	2.37122e-05
585.722	0.550171	-4.45557e-06
590.042	0.55014	-7.1106e-06
594.422	0.550171	1.67236e-05
598.742	0.55014	-5.12695e-06
603.062	0.550201	-7.17163e-06
607.442	0.550171	1.09863e-05
611.762	0.550232	-4.66919e-06
616.082	0.55011	-5.88989e-06
620.462	0.55014	6.74438e-06
624.782	0.550171	-5.31006e-06
629.102	0.550201	-6.31714e-06
633.482	0.550171	4.85229e-06
637.802	0.55014	-5.0354e-06
642.122	0.550201	-7.1106e-06
646.502	0.550171	4.24194e-06
650.822	0.55014	-6.01196e-06
655.142	0.550171	-6.62231e-06
659.522	0.550232	3.26538e-06
663.842	0.550171	-5.34058e-06
668.162	0.55014	-7.78198e-06
672.542	0.55011	1.58691e-06
676.862	0.550171	-4.82178e-06
681.182	0.55011	-8.08716e-06
685.562	0.55014	9.15527e-08
689.882	0.550201	-5.70679e-06
694.202	0.550171	-6.5918e-06
698.582	0.55069	-7.8125e-06
702.902	0.549194	7.62939e-07
707.222	0.550415	-6.68335e-06
711.602	0.550323	-1.15967e-06
715.922	0.55011	-9.00269e-06
720.262	-0.699127	-0.00794067
724.622	0.551086	-8.57544e-06
728.942	0.551086	-1.31531e-05
733.282	-0.699158	-0.00513184
737.642	0.55014	-3.50952e-06
741.962	0.551117	-1.33362e-05
746.302	-0.699005	-0.00416656
750.662	0.550964	-7.50732e-06
754.982	0.549896	-2.89917e-06
759.322	-0.699005	-0.00374481
763.682	0.550415	-5.92041e-06
768.002	0.549255	8.8501e-07
772.362	0.00161438	0.00693787
776.702	0.549194	1.83105e-06
781.022	0.549255	6.71387e-07
785.382	0.00209656	0.00130341
789.722	0.55014	-7.32422e-07
794.042	0.550568	-9.49097e-06
798.403	0.00201721	0.000247009
802.743	0.549194	2.83813e-06
807.063	0.549927	-6.7749e-06
811.423	0.000857544	7.87964e-05
815.763	0.550964	-1.02539e-05
820.083	0.550446	-8.42285e-06
824.463	0.551056	9.0271e-05
828.783	0.550415	-4.3335e-06
833.103	0.549164	6.40869e-07
837.483	0.549316	4.76074e-05
841.803	0.551086	-1.18103e-05
846.123	0.550964	-1.18103e-05
850.503	0.551025	1.72119e-05
854.823	0.549225	6.10352e-07
859.143	0.549927	-5.52368e-06
863.523	0.549683	2.17896e-05
867.843	0.549866	-1.77002e-06
872.163	0.55069	-1.09863e-05
876.543	0.550171	8.11768e-06
880.863	0.551056	-1.31531e-05
885.183	0.550812	-1.17798e-05
889.563	0.549316	1.11389e-05
893.883	0.550262	-6.80542e-06
898.203	0.550049	-4.57764e-06
902.583	0.549255	9.91821e-06
906.903	0.549133	1.37329e-06
911.223	0.549103	-1.83105e-07
915.603	0.55069	-3.75366e-06
919.923	0.549255	3.35693e-07
924.243	0.549194	2.13623e-07
928.623	0.549469	5.7373e-06
932.943	0.550873	-1.24817e-05
937.263	0.549316	-1.80054e-06
941.643	0.549438	5.43213e-06
945.963	0.55014	-4.94385e-06
950.283	0.550751	-1.29395e-05
954.663	0.549896	4.97437e-06
958.983	0.550995	-1.23901e-05
963.303	0.549469	-4.27246e-06
967.683	0.549194	5.24902e-06
972.003	0.549042	7.62939e-07
976.323	0.550903	-1.16577e-05
980.703	0.550659	-5.15747e-06
985.023	0.551086	-1.25732e-05
989.363	-0.697113	-0.00993652
993.723	0.550293	-5.79834e-06
998.043	0.549622	-1.28174e-06
1002.38	-0.698303	-0.00631256
1006.74	0.550293	-3.72314e-06
1011.06	0.549194	-1.00708e-06
1015.4	-0.698212	-0.00497253
1019.76	0.550507	-6.5918e-06
1024.08	0.551086	-1.4801e-05
1028.42	-0.698517	-0.00434265
1032.78	0.550446	-6.5918e-06
1037.1	0.550415	-6.74438e-06
1041.46	0.00183105	0.00874939
1045.8	0.549286	1.58691e-06
1050.12	0.550812	-1.18408e-05
1054.48	0.00185852	0.00303955
1058.82	0.550873	-1.12915e-05
1063.14	0.551025	-1.37329e-05
1067.5	0.00128174	0.000686646
1071.84	0.550201	-6.7749e-06
1076.16	0.549347	-1.2207e-06
1080.52	0.00090332	0.000174133
1084.86	0.55127	-1.474e-05
1089.18	0.550385	-7.78198e-06
1093.56	0.549377	0.000110687
1097.88	0.550659	-8.02612e-06
1102.2	0.54953	-2.38037e-06
1106.58	0.551056	3.29895e-05
1110.9	0.551117	-1.37329e-05
1115.22	0.55072	-1.25122e-05
1119.6	0.549377	2.38037e-05
1123.92	0.551086	-1.27869e-05
1128.24	0.550842	-1.13525e-05
1132.62	0.550293	1.07422e-05
1136.94	0.550629	-9.49097e-06
1141.26	0.551086	-1.40076e-05
1145.64	0.549225	1.5564e-05
1149.96	0.549744	-4.79126e-06
1154.28	0.550812	-1.651e-05
1158.66	0.551117	-1.52588e-06
1162.98	0.550476	-1.15662e-05
1167.3	0.551086	-1.44958e-05
1171.68	0.549316	8.54492e-06
1176	0.550842	-6.86646e-06
1180.32	0.551086	-1.4679e-05
1184.7	0.550293	-3.08228e-06
1189.02	0.550903	-1.24817e-05
1193.34	0.549744	-4.39453e-06
1197.72	0.551147	-5.52368e-06
1202.04	0.550323	-1.10168e-05
1206.36	0.550781	-1.41602e-05
1210.74	0.549622	2.83813e-06
1215.06	0.549835	-5.31006e-06
1219.38	0.550873	-1.31531e-05
1223.76	0.550751	-5.58472e-06
1228.08	0.549744	-1.06812e-06
1232.4	0.550903	-1.24207e-05
1236.78	0.550842	-8.36182e-06
1241.1	0.550629	-1.32446e-05
1245.42	0.550629	-8.36182e-06
1249.8	0.550537	-5.70679e-06
1254.12	0.549133	5.49316e-07
1258.46	-0.697937	-0.0122803
1262.82	0.550079	-2.80762e-06
1267.14	0.551208	-1.19019e-05
1271.48	-0.697754	-0.00780334
1275.84	0.550964	-9.8877e-06
1280.16	0.551025	-1.34277e-05
1284.5	-0.699005	-0.00603882
1288.86	0.549866	-2.80762e-06
1293.18	0.55072	-1.39771e-05
1297.52	-0.697388	-0.00514771
1301.88	0.549805	-3.44849e-06
1306.2	0.549896	-1.5564e-06
1310.56	0.00135498	0.0102051
1314.9	0.549927	-3.69263e-06
1319.22	0.549347	2.74658e-07
1323.58	0.00128784	0.00501862
1327.92	0.551208	-1.40991e-05
1332.24	0.549683	-2.68555e-06
1336.6	0.000714111	0.00181
1340.94	0.549255	-1.52588e-07
1345.26	0.549255	-9.76562e-07
1349.62	0.000744629	0.00054657
1353.96	0.550262	-7.23267e-06
1358.28	0.549988	-7.8125e-06
1362.66	0.549225	0.000152039
1366.98	0.550903	-1.41907e-05
1371.3	0.551208	-1.67542e-05
1375.68	0.550903	4.12903e-05
1380	0.550934	-1.12305e-05
1384.32	0.550354	-9.30786e-06
1388.7	0.550659	2.18506e-05
1393.02	0.551178	-1.49231e-05
1397.34	0.550873	-1.40686e-05
1401.72	0.549683	1.76697e-05
1406.04	0.550659	-1.09863e-05
1410.36	0.550079	-8.17871e-06
1414.74	0.549896	9.24683e-06
1419.06	0.549347	-1.15967e-06
1423.38	0.549805	-5.15747e-06
1427.76	0.550201	4.97437e-06
1432.08	0.551025	-1.34888e-05
1436.4	0.549744	-2.44141e-06
1440.78	0.54953	7.14111e-06
1445.1	0.550842	-1.28784e-05
1449.42	0.549622	-2.96021e-06
1453.8	0.550354	-1.52588e-06
1458.12	0.551086	-1.34277e-05
1462.44	0.550385	-1.31836e-05
1466.82	0.549286	5.18799e-06
1471.14	0.550873	-1.28479e-05
1475.46	0.549896	-6.46973e-06
1479.84	0.550476	-4.60815e-06
1482.02	0.550537	-1.08643e-05

File: pulses_1000_to_2000.txt
Time (s)	WE(1).Potential (V)	WE(1).Current (A)
1505.5	-0.698517	-0.0145386
1509.86	0.549377	1.95313e-06
1514.18	0.550873	-1.32446e-05
1518.52	-0.697845	-0.0092804
1522.88	0.550659	-8.39233e-06
1527.2	0.549164	-3.23486e-06
1531.54	-0.698944	-0.00711456
1535.9	0.550568	-8.5144e-06
1540.22	0.550751	-1.28479e-05
1544.56	-0.698914	-0.00597534
1548.92	0.550385	-6.95801e-06
1553.24	0.550934	-1.37024e-05
1557.6	0.000830078	0.0108734
1561.94	0.549774	-3.54004e-06
1566.26	0.549286	-8.54492e-07
1570.62	0.000238037	0.00612427
1574.96	0.549866	-6.5918e-06
1579.28	0.550934	-1.50452e-05
1583.64	0.00154724	0.00304565
1587.98	0.55069	-1.13831e-05
1592.3	0.549774	-5.12695e-06
1596.66	0.00171509	0.00118713
1601	0.549805	-3.9978e-06
1605.32	0.549255	-3.66211e-07
1609.7	0.549408	0.000227692
1614.02	0.549988	-4.36401e-06
1618.34	0.549835	-6.073e-06
1622.72	0.549316	7.08923e-05
1627.04	0.550842	-1.06201e-05
1631.36	0.549622	-4.88281e-06
1635.74	0.549927	3.28064e-05
1640.06	0.550537	-1.02234e-05
1644.38	0.549255	5.79834e-07
1648.76	0.551056	1.26953e-05
1653.08	0.550079	-5.88989e-06
1657.4	0.550934	-1.80664e-05
1661.78	0.551056	4.30298e-06
1666.1	0.549805	-1.52588e-06
1670.42	0.550171	-8.14819e-06
1674.8	0.550598	3.14331e-06
1679.12	0.549316	-1.7395e-06
1683.44	0.550873	-1.23291e-05
1687.82	0.550354	9.15527e-07
1692.14	0.550964	-1.34277e-05
1696.46	0.550629	-8.69751e-06
1700.84	0.550201	5.18799e-06
1705.16	0.549225	-1.2207e-06
1709.48	0.549744	-4.5166e-06
1713.86	0.550873	-4.73022e-06
1718.18	0.549591	-4.3335e-06
1722.5	0.549713	-2.22778e-06
1726.88	0.550232	-2.19727e-06
1731.2	0.551117	-1.44958e-05
1735.52	0.549438	-2.83813e-06
1739.9	0.550201	9.76562e-07
1744.22	0.549652	-3.50952e-06
1748.54	0.549286	-1.52588e-06
1752.92	0.551117	-1.09253e-05
1757.24	0.549866	-2.19727e-06
1761.56	0.549377	-4.3335e-06
1765.94	0.549377	2.22778e-06
1770.26	0.549652	-2.89917e-06
1774.6	-0.697693	-0.0161255
1778.96	0.551086	-1.13831e-05
1783.28	0.54953	-3.90625e-06
1787.62	-0.698425	-0.0110687
1791.98	0.550018	6.10352e-08
1796.3	0.551056	-1.36719e-05
1800.64	-0.698608	-0.00846252
1805	0.549561	-9.46045e-07
1809.32	0.550171	-1.19934e-05
1813.66	-0.697235	-0.0070343
1818.02	0.551178	-1.06506e-05
1822.34	0.55069	-1.15967e-05
1826.7	0.000564575	0.0113556
1831.04	0.551147	-1.11389e-05
1835.36	0.549347	-2.44141e-06
1839.72	0.00202026	0.0070816
1844.06	0.551117	-1.04065e-05
1848.38	0.550995	-1.55334e-05
1852.74	0.000308228	0.00437408
1857.08	0.549866	-1.40381e-06
1861.4	0.551025	-1.39465e-05
1865.76	0.0019165	0.00228516
1870.1	0.550751	-1.16272e-05
1874.42	0.55011	-7.87354e-06
1878.8	0.55011	0.000585022
1883.12	0.550629	-1.0437e-05
1887.44	0.549194	-3.05176e-08
1891.82	0.550568	0.000104889
1896.14	0.54953	-1.31226e-06
1900.46	0.550537	-9.52148e-06
1904.84	0.549225	5.83191e-05
1909.16	0.549408	-1.19019e-06
1913.48	0.549957	-6.95801e-06
1917.86	0.550171	2.78625e-05
1922.18	0.549072	-1.19019e-06
1926.5	0.550812	-1.19934e-05
1930.88	0.550964	1.297e-05
1935.2	0.549988	-6.28662e-06
1939.52	0.550964	-1.6449e-05
1943.9	0.550903	7.56836e-06
1948.22	0.551208	-1.47095e-05
1952.54	0.549561	-4.3335e-06
1956.92	0.549316	1.34277e-05
1961.24	0.550232	-6.073e-06
1965.56	0.549469	-3.57056e-06
1969.94	0.549408	9.46045e-06
1974.26	0.550049	-7.20215e-06
1978.58	0.550781	-1.37024e-05
1982.96	0.549225	1.0376e-05
1987.28	0.550903	-1.0376e-05
1991.6	0.551147	-1.60828e-05
1995.98	0.551147	-5.52368e-06
2000.3	0.549927	-4.48608e-06
2004.62	0.550842	-1.15356e-05
2009	0.549469	3.479e-06
2013.32	0.549957	-8.3313e-06
2017.64	0.549438	-3.90625e-06
2022.02	0.550903	-8.54492e-06
2026.34	0.549225	-1.25122e-06
2030.66	0.549194	-7.32422e-07
2035.04	0.551056	-9.06372e-06
2039.36	0.550537	-9.30786e-06
2043.7	-0.697906	-0.0174133
2048.06	0.549469	-2.19727e-06
2052.38	0.549316	-1.64795e-06
2056.72	-0.697174	-0.012439
2061.08	0.550201	-4.3335e-06
2065.4	0.550507	-1.10779e-05
2069.74	-0.698303	-0.00951233
2074.1	0.551239	-1.15967e-05
2078.42	0.55014	-7.62939e-06
2082.76	-0.69809	-0.0078064
2087.12	0.550354	-5.31006e-06
2091.44	0.550812	-1.0376e-05
2095.8	0.000119019	0.0115631
2100.14	0.549225	1.52588e-07
2104.46	0.550415	-1.02539e-05
2108.82	0.00149841	0.00768127
2113.16	0.549103	2.99072e-06
2117.48	0.550995	-1.35498e-05
2121.84	0.00126038	0.00512421
2126.18	0.55069	-1.01013e-05
2130.5	0.549347	-5.49316e-07
2134.86	0.000531006	0.00310303
2139.2	0.550598	-7.41577e-06
2143.52	0.550751	-1.24512e-05
2147.9	0.549957	0.00186523
2152.22	0.550598	-7.96509e-06
2156.54	0.549591	-4.11987e-06
2160.92	0.549652	0.000167145
2165.24	0.550995	-1.26648e-05
2169.56	0.549316	-1.46484e-06
2173.94	0.550964	6.49719e-05
2178.26	0.550476	-6.98853e-06
2182.58	0.551056	-1.35803e-05
2186.96	0.550049	4.04663e-05
2191.28	0.549408	-1.86157e-06
2195.6	0.549347	-3.66211e-07
2199.98	0.550873	1.9928e-05
2204.3	0.551086	-1.34583e-05
2208.62	0.551056	-1.40076e-05
2213	0.550751	1.02539e-05
2217.32	0.549561	-3.72314e-06
2221.64	0.551178	-1.66931e-05
2226.02	0.549561	1.77002e-05
2230.34	0.549286	-4.27246e-07
2234.66	0.55069	-1.15967e-05
2239.04	0.550995	1.64795e-06
2243.36	0.549347	-1.67847e-06
2247.68	0.551056	-1.474e-05
2252.06	0.55072	3.96729e-07
2256.38	0.549438	-9.46045e-07
2260.7	0.549805	-5.46265e-06
2265.08	0.550812	-1.15967e-06
2269.4	0.550903	-1.26038e-05
2273.72	0.549561	-3.60107e-06
2278.1	0.549561	5.92041e-06
2282.42	0.550415	-9.8877e-06
2286.74	0.549774	-5.31006e-06
2291.12	0.550842	-6.2561e-06
2295.44	0.549347	-9.76562e-07
2299.76	0.549561	-2.96021e-06
2304.14	0.5495	1.95313e-06
2308.46	0.550659	-1.02844e-05
2312.8	-0.697662	-0.0183533
2317.16	0.550385	-4.24194e-06
2321.48	0.549713	-3.72314e-06
2325.82	-0.698517	-0.0134705
2330.18	0.549377	2.28882e-06
2334.5	0.549164	-3.90625e-06
2338.84	-0.697723	-0.0104034
2343.2	0.549316	3.08228e-06
2347.52	0.549255	-6.71387e-07
2351.86	-0.698853	-0.0085083
2356.22	0.549591	2.16675e-06
2360.54	0.550262	-8.60596e-06
2364.9	0.000924683	0.0115479
2369.24	0.551147	-1.03149e-05
2373.56	0.550018	-7.59888e-06
2377.92	0.000854492	0.00795288
2382.26	0.550964	-1.14136e-05
2386.58	0.549438	-2.47192e-06
2390.94	0.000518799	0.00554718
2395.28	0.550537	-6.95801e-06
2399.6	0.549469	-2.31934e-06
2403.96	0.000396729	0.00365417
2408.3	0.549347	1.00708e-06
2412.62	0.549652	-5.85937e-06
2417	0.550354	0.00857849
2421.32	0.550415	-7.62939e-06
2425.64	0.550507	-1.3092e-05
2430.02	0.549194	0.000240479
2434.34	0.5495	-1.46484e-06
2438.66	0.550964	-1.30005e-05
2443.04	0.549255	9.76868e-05
2447.36	0.549316	-2.44141e-07
2451.68	0.549469	-1.0376e-06
2456.06	0.549744	4.87976e-05
2460.38	0.549713	-2.96021e-06
2464.7	0.549438	-1.15967e-06
2469.08	0.549286	3.52478e-05
2473.4	0.551086	-1.04675e-05
2477.72	0.549408	-3.66211e-06
2482.1	0.551025	1.17493e-05
2486.42	0.5495	-4.85229e-06
2490.74	0.549408	-2.99072e-06
2495.12	0.549683	1.44043e-05
2499.44	0.549377	1.0376e-06
2503.76	0.551086	-1.45874e-05
2508.14	0.55072	4.02832e-06
2512.46	0.5495	-2.53296e-06
2516.78	0.550537	-1.26038e-05
2521.16	0.549988	7.62939e-06
2525.48	0.550903	-1.19629e-05
2529.8	0.549347	-2.68555e-06
2534.18	0.550323	2.38037e-06
2538.5	0.551056	-1.25732e-05
2542.82	0.54953	-4.02832e-06
2547.2	0.551056	-4.88281e-06
2551.52	0.549316	-3.05176e-07
2555.84	0.550964	-1.474e-05
2560.22	0.549286	7.47681e-06
2564.54	0.550415	-1.0437e-05
2568.86	0.549988	-7.20215e-06
2573.24	0.549408	3.32642e-06
2577.56	0.549377	-6.10352e-07
2581.9	-0.697815	-0.0191772
2586.26	0.549377	3.20435e-06
2590.58	0.549286	9.15527e-08
2594.92	-0.698639	-0.0143555
2599.28	0.551056	-8.81958e-06
2603.6	0.549408	-3.05176e-08
2607.94	-0.697083	-0.0111877
2612.3	0.549622	1.2207e-07
2616.62	0.550842	-1.19019e-05
2620.96	-0.697998	-0.00915833
2625.32	0.549469	1.43433e-06
2629.64	0.550873	-1.29089e-05
2634	-1.83105e-05	0.0114563
2638.34	0.549622	-1.83105e-07
2642.66	0.549377	-1.19019e-06
2647.02	0.00166321	0.00807495
2651.36	0.549713	-2.19727e-06
2655.68	0.55011	-6.46973e-06
2660.04	0.000244141	0.00578857
2664.38	0.550934	-1.0376e-05
2668.7	0.550232	-1.1322e-05
2673.06	0.00128174	0.00398254
2677.4	0.549408	1.28174e-06
2681.72	0.550873	-1.31226e-05
2686.1	0.549164	0.0109558
2690.42	0.550659	-6.37817e-06
2694.74	0.550842	-1.22681e-05
2699.12	0.551025	0.000343048
2703.44	0.549835	-3.32642e-06
2707.76	0.549591	-4.5166e-06
2712.14	0.549622	0.000111786
2716.46	0.550323	-6.7749e-06
2720.78	0.551117	-1.52283e-05
2725.16	0.549164	6.2561e-05
2729.48	0.551086	-1.09863e-05
2733.8	0.550903	-1.36414e-05
2738.18	0.551025	2.70691e-05
2742.5	0.550629	-8.94165e-06
2746.82	0.549774	-2.10571e-06
2751.2	0.550934	1.34888e-05
2755.52	0.549347	-4.57764e-07
2759.84	0.549255	-2.62451e-06
2764.22	0.550507	1.15662e-05
2768.54	0.551086	-1.26343e-05
2772.86	0.55072	-1.09253e-05
2777.24	0.551056	3.87573e-06
2781.56	0.550262	-1.0376e-05
2785.88	0.550812	-1.00708e-05
2790.26	0.549774	1.0498e-05
2794.58	0.549988	-4.18091e-06
2798.9	0.549683	-2.80762e-06
2803.28	0.550568	-3.05176e-08
2805.46	0.55011	-4.69971e-06