Folder: electrochromicfilms/Edgar/20240522/20240522/electrodeposition_pulsed_potential_20240522_A

File: OCP_1
Time (s)	WE(1).Potential (V)
3.48177	0.516052
4.48177	0.516052
5.48177	0.516052
6.48177	0.516052
7.48177	0.516052
8.48177	0.516052
9.48177	0.516052
10.4818	0.516357
11.4818	0.516357
12.4818	0.516357
13.4818	0.516357
14.4818	0.516357
15.4818	0.516357
16.4818	0.516663
17.4818	0.516663
18.4818	0.516663
19.4818	0.516663
20.4818	0.516663
21.4818	0.516663
22.4818	0.516663
23.4818	0.516663
24.4818	0.516663
25.4818	0.516968
26.4818	0.516968
27.4818	0.516968
28.4818	0.516968
29.4818	0.516968
30.4818	0.517273
31.4818	0.517273
32.4818	0.517273
33.4818	0.517273
34.4818	0.517273
35.4818	0.517273
36.4818	0.517578
37.4818	0.517578
38.4818	0.517578
39.4818	0.517578
40.4818	0.517578
41.4818	0.517578
42.4818	0.517883
43.4818	0.517883
44.4818	0.517883
45.4818	0.517883
46.4818	0.517883
47.4818	0.517883
48.4818	0.518188
49.4818	0.518188
50.4818	0.518188
51.4818	0.518188
52.4818	0.518188
53.4818	0.518188
54.4818	0.518494
55.4818	0.518494
56.4818	0.518494
57.4818	0.518494
58.4818	0.518494
59.4818	0.518494
60.4818	0.518799
61.4818	0.518799
62.4818	0.518799
63.4818	0.518799
64.4818	0.518799
65.4818	0.518799
66.4818	0.519104
67.4818	0.519104
68.4818	0.519104
69.4818	0.519104
70.4818	0.519104
71.4818	0.519104
72.4818	0.519104
73.4818	0.519104
74.4818	0.519104
75.4818	0.519409
76.4818	0.519409
77.4818	0.519409
78.4818	0.519409
79.4818	0.519409
80.4818	0.519409
81.4818	0.519409
82.4818	0.519409
83.4818	0.519409
84.4818	0.519409
85.4818	0.519409
86.4818	0.519409
87.4818	0.519409
88.4818	0.519714
89.4818	0.519714
90.4818	0.519714
91.4818	0.519714
92.4818	0.519714
93.4818	0.519714
94.4818	0.519714
95.4818	0.519714
96.4818	0.519714
97.4818	0.519714
98.4818	0.519714
99.4818	0.519714
100.482	0.519714
101.482	0.519714
102.482	0.52002
103.482	0.52002
104.482	0.52002
105.482	0.52002
106.482	0.52002
107.482	0.52002
108.482	0.52002
109.482	0.52002
110.482	0.52002
111.482	0.52002
112.482	0.52002
113.482	0.52002
114.482	0.52002
115.482	0.52002
116.482	0.52002
117.482	0.52002
118.482	0.52002
119.482	0.52002
120.482	0.520325
121.482	0.520325
122.482	0.520325
123.482	0.520325
124.482	0.520325
125.482	0.520325
126.482	0.520325
127.482	0.520325
128.482	0.520325
129.482	0.520325
130.482	0.520325
131.482	0.520325
132.482	0.520325
133.482	0.520325
134.482	0.520325
135.482	0.520325
136.482	0.520325
137.482	0.520325
138.482	0.520325
139.482	0.520325
140.482	0.520325
141.482	0.52063
142.482	0.52063
143.482	0.52063
144.482	0.52063
145.482	0.52063
146.482	0.52063
147.482	0.52063
148.482	0.52063
149.482	0.52063
150.482	0.52063
151.482	0.52063
152.482	0.52063
153.482	0.52063
154.482	0.520935
155.482	0.520935
156.482	0.520935
157.482	0.520935
158.482	0.520935
159.482	0.520935
160.482	0.520935
161.482	0.520935
162.482	0.520935
163.482	0.520935
164.482	0.520935
165.482	0.520935
166.482	0.52124
167.482	0.52124
168.482	0.52124
169.482	0.52124
170.482	0.52124
171.482	0.52124
172.482	0.52124
173.482	0.52124
174.482	0.52124
175.482	0.521545
176.482	0.521545
177.482	0.521545
178.482	0.521545
179.482	0.521545
180.482	0.521545
181.482	0.521545
182.482	0.521545

File: OCP_3
Time (s)	WE(1).Potential (V)
8122.48	0.509949
8123.48	0.500488
8124.48	0.492645
8125.48	0.486633
8126.48	0.481903
8127.48	0.478302
8128.48	0.475586
8129.48	0.473572
8130.48	0.472137
8131.48	0.471191
8132.48	0.470581
8133.48	0.470215
8134.48	0.470154
8135.48	0.470215
8136.48	0.470398
8137.48	0.470703
8138.48	0.4711
8139.48	0.471558
8140.48	0.472046
8141.48	0.472565
8142.48	0.473114
8143.48	0.473663
8144.48	0.474243
8145.48	0.474823
8146.48	0.475403
8147.48	0.475952
8148.48	0.476501
8149.48	0.47702
8150.48	0.47757
8151.48	0.478058
8152.48	0.478546
8153.48	0.479004
8154.48	0.479431
8155.48	0.479858
8156.48	0.480286
8157.48	0.480652
8158.48	0.481049
8159.48	0.481445
8160.48	0.481812
8161.48	0.482147
8162.48	0.482483
8163.48	0.482788
8164.48	0.483093
8165.48	0.483398
8166.48	0.483704
8167.48	0.483978
8168.48	0.484192
8169.48	0.484436
8170.48	0.48465
8171.48	0.484894
8172.48	0.485077
8173.48	0.48526
8174.48	0.485474
8175.48	0.485657
8176.48	0.48584
8177.48	0.486023
8178.48	0.486176
8179.48	0.486328
8180.48	0.486511
8181.48	0.486633
8182.48	0.486786
8183.48	0.486938
8184.48	0.487091
8185.48	0.487305
8186.48	0.487488
8187.48	0.487701
8188.48	0.487885
8189.48	0.488068
8190.48	0.48822
8191.48	0.488373
8192.48	0.488495
8193.48	0.488647
8194.48	0.48877
8195.48	0.488892
8196.48	0.489014
8197.48	0.489105
8198.48	0.489197
8199.48	0.489288
8200.48	0.48938
8201.48	0.489471
8202.48	0.489532
8203.48	0.489594
8204.48	0.489685
8205.48	0.489746
8206.48	0.489807
8207.48	0.489899
8208.48	0.48996
8209.48	0.490021
8210.48	0.490112
8211.48	0.490112
8212.48	0.490173
8213.48	0.490204
8214.48	0.490265
8215.48	0.490326
8216.48	0.490356
8217.48	0.490387
8218.48	0.490417
8219.48	0.490448
8220.48	0.490479
8221.48	0.490479
8222.48	0.490509
8223.48	0.49054
8224.48	0.49057
8225.48	0.490601
8226.48	0.490601
8227.48	0.490631
8228.48	0.490631
8229.48	0.490662
8230.48	0.490692
8231.48	0.490692
8232.48	0.490723
8233.48	0.490784
8234.48	0.490845
8235.48	0.490906
8236.48	0.490936
8237.48	0.490997
8238.48	0.491028
8239.48	0.491058
8240.48	0.491089
8241.48	0.491089
8242.48	0.491119
8243.48	0.491119
8244.48	0.49118
8245.48	0.491211
8246.48	0.491272
8247.48	0.491302
8248.48	0.491333
8249.48	0.491364
8250.48	0.491394
8251.48	0.491394
8252.48	0.491425
8253.48	0.491425
8254.48	0.491455
8255.48	0.491486
8256.48	0.491516
8257.48	0.491516
8258.48	0.491516
8259.48	0.491547
8260.48	0.491577
8261.48	0.491547
8262.48	0.491608
8263.48	0.491638
8264.48	0.491669
8265.48	0.491699
8266.48	0.491547
8267.48	0.491699
8268.48	0.49173
8269.48	0.49173
8270.48	0.49176
8271.48	0.49176
8272.48	0.491791
8273.48	0.491791
8274.48	0.491821
8275.48	0.491852
8276.48	0.491852
8277.48	0.491913
8278.48	0.491943
8279.48	0.491974
8280.48	0.492035
8281.48	0.492065
8282.48	0.492096
8283.48	0.492065
8284.48	0.4921875
8285.48	0.492218
8286.48	0.492249
8287.48	0.492249
8288.48	0.492279
8289.48	0.49231
8290.48	0.49234
8291.48	0.49234
8292.48	0.49234
8293.48	0.49234
8294.48	0.492371
8295.48	0.492371
8296.48	0.492371
8297.48	0.492371
8298.48	0.492371
8299.48	0.49234
8300.48	0.49234
8301.48	0.49231

File: pulses_0_to_1000.txt
Time (s)	WE(1).Potential (V)	WE(1).Current (A)
183.186	-0.699219	-0.00242035
187.546	0.521698	-1.46484e-06
191.866	0.520569	2.83813e-06
196.206	-0.699249	-0.00212891
200.566	0.521729	2.7771e-06
204.886	0.520813	3.32642e-06
209.226	-0.699677	-0.00234619
213.586	0.520813	1.08032e-05
217.906	0.520813	4.76074e-06
222.246	-0.699738	-0.00252686
226.606	0.52124	8.02612e-06
230.926	0.521637	-4.27246e-07
235.286	0.000106812	0.0023053
239.626	0.521667	3.26538e-06
243.946	0.521362	9.46045e-07
248.306	-0.000192261	0.000382874
252.646	0.521545	2.31934e-06
256.966	0.521484	-8.8501e-07
261.326	0.000411987	0.000139343
265.666	0.520782	6.13403e-06
269.986	0.52063	3.69263e-06
274.346	3.05176e-05	6.58875e-05
278.686	0.521057	3.14331e-06
283.006	0.521698	-3.479e-06
287.386	0.521881	9.95789e-05
291.706	0.520691	5.64575e-06
296.026	0.520508	2.62451e-06
300.406	0.521332	4.30298e-05
304.726	0.520874	3.69263e-06
309.046	0.520599	3.23486e-06
313.426	0.521759	2.27661e-05
317.746	0.520721	2.22778e-06
322.066	0.520935	1.31226e-06
326.446	0.521149	1.9104e-05
330.766	0.520996	2.13623e-07
335.086	0.520905	-5.79834e-07
339.466	0.521576	1.03455e-05
343.786	0.521667	-1.52588e-06
348.106	0.521301	-2.0752e-06
352.486	0.52066	1.26648e-05
356.806	0.521606	-2.38037e-06
361.126	0.521729	-4.63867e-06
365.506	0.520599	1.15356e-05
369.826	0.521606	-2.53296e-06
374.146	0.521759	-4.66919e-06
378.526	0.52182	2.34985e-06
382.846	0.52063	4.05884e-06
387.166	0.52063	3.44849e-06
391.546	0.521545	2.89917e-06
395.866	0.520569	3.75366e-06
400.186	0.520996	-9.15527e-08
404.566	0.521698	1.00708e-06
408.886	0.52179	-2.47192e-06
413.206	0.521729	-6.04248e-06
417.586	0.521637	3.05176e-07
421.906	0.521576	-3.20435e-06
426.226	0.521667	-4.82178e-06
430.606	0.520966	3.66211e-06
434.926	0.52066	2.38037e-06
439.246	0.521759	-4.85229e-06
443.626	0.521454	-6.10352e-08
447.946	0.520813	1.52588e-06
452.286	-0.698853	-0.0111298
456.646	0.520569	4.73022e-06
460.966	0.521118	-5.49316e-07
465.306	-0.699585	-0.007547
469.666	0.521027	3.05176e-06
473.986	0.520691	1.86157e-06
478.326	-0.698486	-0.0058075
482.686	0.52066	4.69971e-06
487.006	0.521515	-2.16675e-06
491.346	-0.698761	-0.00485291
495.706	0.520874	2.34985e-06
500.026	0.520996	4.27246e-07
504.386	-0.000140381	0.00950012
508.726	0.52121	2.74658e-07
513.046	0.520844	1.28174e-06
517.406	-0.000131226	0.00597443
521.746	0.521057	1.86157e-06
526.066	0.521454	-2.74658e-06
530.426	0.000170898	0.00346466
534.766	0.520813	2.99072e-06
539.086	0.521484	-3.20435e-06
543.446	0.000579834	0.00164703
547.786	0.521118	8.54492e-07
552.106	0.521362	-3.05176e-06
556.486	0.520844	0.000456635
560.806	0.521423	-2.31934e-06
565.126	0.52121	-1.70898e-06
569.506	0.521149	9.34143e-05
573.826	0.520599	3.8147e-06
578.146	0.521759	-4.24194e-06
582.526	0.521057	4.17786e-05
586.846	0.521118	-9.15527e-08
591.166	0.520569	2.53296e-06
595.546	0.520691	2.79541e-05
599.866	0.52179	-3.35693e-06
604.186	0.521362	-3.11279e-06
608.566	0.520599	2.21558e-05
612.886	0.52124	3.05176e-07
617.206	0.521606	-4.30298e-06
621.586	0.521637	1.01929e-05
625.906	0.52121	-3.35693e-07
630.226	0.520538	2.22778e-06
634.606	0.520508	1.51062e-05
638.926	0.520813	3.69263e-06
643.246	0.521515	-2.68555e-06
647.626	0.520813	1.17798e-05
651.946	0.520691	3.11279e-06
656.266	0.521515	-2.16675e-06
660.646	0.520569	1.06201e-05
664.966	0.521393	-1.28174e-06
669.286	0.521881	-4.21143e-06
673.666	0.52063	1.01013e-05
677.986	0.520752	1.5564e-06
682.306	0.521057	-1.12915e-06
686.686	0.520874	9.27734e-06
691.006	0.521698	-3.54004e-06
695.326	0.521484	-3.17383e-06
699.706	0.521851	1.49536e-06
704.026	0.521515	-3.02124e-06
708.346	0.520905	3.05176e-08
712.726	0.520935	7.1106e-06
717.046	0.520935	3.96729e-07
721.386	-0.699188	-0.0141785
725.746	0.521698	1.52588e-06
730.066	0.520844	2.38037e-06
734.406	-0.698761	-0.0107391
738.766	0.521179	2.53296e-06
743.086	0.520966	2.13623e-07
747.426	-0.698975	-0.00848389
751.786	0.521271	4.24194e-06
756.106	0.521729	-3.8147e-06
760.446	-0.699493	-0.0070224
764.806	0.520691	7.50732e-06
769.126	0.520752	1.52588e-06
773.487	-0.000799561	0.00963745
777.827	0.521637	2.44141e-07
782.147	0.521667	-3.63159e-06
786.507	0.000640869	0.00698029
790.847	0.52066	7.62939e-06
795.167	0.52066	1.80054e-06
799.527	0.000650024	0.00510162
803.867	0.520599	7.20215e-06
808.187	0.520721	3.84521e-06
812.547	0.000857544	0.00354431
816.887	0.520905	2.53296e-06
821.207	0.521698	-2.74658e-06
825.587	0.521729	0.00628876
829.907	0.52179	-1.89209e-06
834.227	0.521118	3.66211e-07
838.607	0.52066	0.000358673
842.927	0.520782	5.31006e-06
847.247	0.521088	5.49316e-07
851.627	0.520874	0.000125122
855.947	0.520691	6.19507e-06
860.267	0.520844	1.80054e-06
864.647	0.521729	6.21338e-05
868.967	0.521606	-4.57764e-07
873.287	0.52124	8.54492e-07
877.667	0.520752	4.13208e-05
881.987	0.520996	1.43433e-06
886.307	0.52066	5.09644e-06
890.687	0.520599	3.33557e-05
895.007	0.52063	5.70679e-06
899.327	0.521698	-4.60815e-06
903.707	0.521393	2.09351e-05
908.027	0.520691	5.06592e-06
912.347	0.520569	3.02124e-06
916.727	0.521698	1.51978e-05
921.047	0.521576	-1.34277e-06
925.367	0.521606	-3.26538e-06
929.747	0.521454	1.56555e-05
934.067	0.521454	-5.49316e-07
938.387	0.52124	-2.38037e-06
942.767	0.521149	1.39465e-05
947.087	0.52179	-3.35693e-07
951.407	0.520752	2.16675e-06
955.787	0.520813	1.34888e-05
960.107	0.521484	3.35693e-07
964.427	0.520813	1.25122e-06
968.807	0.521027	1.16272e-05
973.127	0.520599	5.00488e-06
977.447	0.52124	-1.70898e-06
981.827	0.521454	6.16455e-06
986.147	0.520966	1.31226e-06
990.487	-0.699036	-0.0158386
994.847	0.521698	6.10352e-06
999.167	0.520935	4.27246e-07
1003.51	-0.698242	-0.0125031
1007.87	0.521271	6.71387e-06
1012.19	0.521057	5.49316e-07
1016.53	-0.698792	-0.0102753
1020.89	0.520813	1.03455e-05
1025.21	0.52063	4.54712e-06
1029.55	-0.699371	-0.00863647
1033.91	0.52124	7.93457e-06
1038.23	0.521545	-1.28174e-06
1042.59	-0.000756836	0.00918274
1046.93	0.521393	4.5166e-06
1051.25	0.520569	4.57764e-06
1055.61	-0.00039978	0.00705994
1059.95	0.520569	8.66699e-06
1064.27	0.521729	9.15527e-08
1068.63	0.000540161	0.00550262
1072.97	0.521729	1.7395e-06
1077.29	0.52179	-1.7395e-06
1081.65	0.000735474	0.00421509
1085.99	0.520538	8.45337e-06
1090.31	0.521667	-1.86157e-06
1094.69	0.521301	0.0106384
1099.01	0.521118	5.31006e-06
1103.33	0.521729	-2.10571e-06
1107.71	0.520569	0.00121826
1112.03	0.520538	8.8501e-06
1116.35	0.521667	-3.02124e-06
1120.73	0.520935	0.000295868
1125.05	0.520599	8.69751e-06
1129.37	0.521454	2.13623e-07
1133.75	0.520935	0.00013858
1138.07	0.52121	4.05884e-06
1142.39	0.520782	3.02124e-06
1146.77	0.52063	8.52661e-05
1151.09	0.521393	3.69263e-06
1155.41	0.52179	-2.04468e-06
1159.79	0.52063	5.86548e-05
1164.11	0.521423	2.80762e-06
1168.43	0.521576	-2.44141e-06
1172.81	0.521484	3.85742e-05
1177.13	0.520874	4.39453e-06
1181.45	0.520721	4.11987e-06
1185.83	0.520844	3.29285e-05
1190.15	0.521698	5.18799e-07
1194.47	0.521606	-1.86157e-06
1198.85	0.520996	2.67944e-05
1203.17	0.521759	-1.31226e-06
1207.49	0.521515	-1.58691e-06
1211.87	0.521698	1.87683e-05
1216.19	0.521759	-5.18799e-07
1220.51	0.521393	-9.46045e-07
1224.89	0.521545	1.92566e-05
1229.21	0.521027	4.66919e-06
1233.53	0.52179	-3.75366e-06
1237.91	0.521515	1.51978e-05
1242.23	0.521179	3.96729e-06
1246.55	0.520752	2.74658e-06
1250.93	0.520599	1.92566e-05
1255.25	0.520691	6.80542e-06
1259.59	-0.698456	-0.0170471
1263.95	0.520905	1.55945e-05
1268.27	0.520996	3.23486e-06
1272.61	-0.698975	-0.013623
1276.97	0.520569	1.62659e-05
1281.29	0.521393	5.49316e-07
1285.63	-0.69931	-0.011496
1289.99	0.521606	8.30078e-06
1294.31	0.521484	1.2207e-07
1298.65	-0.699219	-0.00984802
1303.01	0.521698	7.90405e-06
1307.33	0.521667	-9.46045e-07
1311.69	0.000378418	0.00871277
1316.03	0.520935	1.09253e-05
1320.35	0.520996	1.19019e-06
1324.71	-0.000244141	0.00692627
1329.05	0.520691	1.22375e-05
1333.37	0.520569	4.76074e-06
1337.73	0.000244141	0.00558807
1342.07	0.521729	5.70679e-06
1346.39	0.521759	-1.92261e-06
1350.75	0.000512695	0.00446381
1355.09	0.52066	1.14746e-05
1359.41	0.521759	-1.09863e-06
1363.79	0.520355	0.0124115
1368.11	0.520721	1.03455e-05
1372.43	0.52063	5.37109e-06
1376.81	0.520599	0.00480469
1381.13	0.520782	8.57544e-06
1385.45	0.520813	3.78418e-06
1389.83	0.520782	0.00059082
1394.15	0.521576	4.63867e-06
1398.47	0.521118	2.62451e-06
1402.85	0.52179	0.000236786
1407.17	0.521088	7.99561e-06
1411.49	0.521027	3.84521e-06
1415.87	0.520569	0.000138
1420.19	0.52182	2.47192e-06
1424.51	0.52066	4.91333e-06
1428.89	0.521637	8.41675e-05
1433.21	0.521759	2.38037e-06
1437.53	0.520599	4.97437e-06
1441.91	0.521057	6.40869e-05
1446.23	0.52063	1.00708e-05
1450.55	0.521057	2.99072e-06
1454.93	0.521759	4.37012e-05
1459.25	0.521484	2.16675e-06
1463.57	0.521545	-1.5564e-06
1467.95	0.520538	4.3335e-05
1472.27	0.521484	3.93677e-06
1476.59	0.52124	2.13623e-06
1480.97	0.520508	3.52478e-05
1483.15	0.521637	-1.89209e-06

File: pulses_1000_to_2000.txt
Time (s)	WE(1).Potential (V)	WE(1).Current (A)
1506.35	-0.69873	-0.0178894
1510.71	0.521271	1.68457e-05
1515.03	0.521729	-3.05176e-08
1519.37	-0.699097	-0.0143799
1523.73	0.521606	1.34277e-05
1528.05	0.520599	6.89697e-06
1532.39	-0.698914	-0.0122986
1536.75	0.521545	1.28174e-05
1541.07	0.521545	7.32422e-07
1545.41	-0.698547	-0.0106628
1549.77	0.521484	1.27563e-05
1554.09	0.520752	6.46973e-06
1558.45	-0.000689697	0.0083252
1562.79	0.520599	1.6571e-05
1567.11	0.521606	8.8501e-07
1571.47	-0.000442505	0.00676208
1575.81	0.521606	9.15527e-06
1580.13	0.521545	-5.79834e-07
1584.49	0.000408936	0.00555359
1588.83	0.520844	1.27258e-05
1593.15	0.52066	5.12695e-06
1597.51	0.000714111	0.00453552
1601.85	0.521759	6.16455e-06
1606.17	0.521057	2.89917e-06
1610.55	0.520447	0.0132629
1614.87	0.521729	6.95801e-06
1619.19	0.521667	3.66211e-07
1623.57	0.520538	0.00785217
1627.89	0.521301	1.02539e-05
1632.21	0.520599	7.32422e-06
1636.59	0.520813	0.000983582
1640.91	0.520752	1.13831e-05
1645.23	0.521667	-1.52588e-07
1649.61	0.521454	0.000346222
1653.93	0.521057	9.00269e-06
1658.25	0.521027	3.35693e-06
1662.63	0.52124	0.000184937
1666.95	0.520905	8.8501e-06
1671.27	0.52182	-2.41089e-06
1675.65	0.520691	0.000121063
1679.97	0.52063	1.10168e-05
1684.29	0.521362	1.5564e-06
1688.67	0.521362	8.19397e-05
1692.99	0.521759	4.39453e-06
1697.31	0.520721	6.68335e-06
1701.69	0.521423	6.29578e-05
1706.01	0.521851	3.60107e-06
1710.33	0.521729	-1.70898e-06
1714.71	0.521179	4.80957e-05
1719.03	0.520599	1.18713e-05
1723.35	0.521759	-1.49536e-06
1727.73	0.520996	4.05884e-05
1732.05	0.521118	6.34766e-06
1736.37	0.520721	5.43213e-06
1740.75	0.521515	3.24402e-05
1745.07	0.52179	2.31934e-06
1749.39	0.52179	-3.38745e-06
1753.77	0.521576	2.61841e-05
1758.09	0.521698	2.38037e-06
1762.41	0.520691	5.0354e-06
1766.79	0.521729	2.16675e-05
1771.11	0.52063	8.66699e-06
1775.45	-0.69873	-0.0185822
1779.81	0.520874	2.50549e-05
1784.13	0.52063	7.99561e-06
1788.47	-0.698944	-0.015036
1792.83	0.521088	2.04773e-05
1797.15	0.521271	4.15039e-06
1801.49	-0.698639	-0.0129944
1805.85	0.521667	1.45569e-05
1810.17	0.521698	8.54492e-07
1814.51	-0.698914	-0.0113892
1818.87	0.521362	1.78223e-05
1823.19	0.521271	2.50244e-06
1827.55	0.000308228	0.00789795
1831.89	0.521667	1.3916e-05
1836.21	0.521637	6.40869e-07
1840.57	0.000546265	0.00652496
1844.91	0.520569	1.83716e-05
1849.23	0.520752	6.31714e-06
1853.59	0.0006073	0.00545013
1857.93	0.521118	1.58386e-05
1862.25	0.520966	3.75366e-06
1866.61	-0.000378418	0.00453491
1870.95	0.521667	1.11389e-05
1875.27	0.520691	6.37817e-06
1879.65	0.521027	0.0139496
1883.97	0.521057	1.34277e-05
1888.29	0.520569	7.90405e-06
1892.67	0.521332	0.00946045
1896.99	0.521332	1.07727e-05
1901.31	0.520721	7.78198e-06
1905.69	0.520782	0.00189087
1910.01	0.520874	1.30615e-05
1914.33	0.521759	4.88281e-07
1918.71	0.521271	0.00052948
1923.03	0.520782	1.27563e-05
1927.35	0.520599	6.46973e-06
1931.73	0.520966	0.000263916
1936.05	0.520996	1.15662e-05
1940.37	0.521149	3.41797e-06
1944.75	0.521667	0.000158203
1949.07	0.521027	1.03149e-05
1953.39	0.52121	4.02832e-06
1957.77	0.521057	0.000112823
1962.09	0.520508	1.21765e-05
1966.41	0.521667	1.43433e-06
1970.79	0.520599	8.71887e-05
1975.11	0.521362	6.01196e-06
1979.43	0.521057	4.3335e-06
1983.81	0.521484	6.25916e-05
1988.13	0.521484	5.58472e-06
1992.45	0.521759	1.2207e-07
1996.83	0.520691	5.53894e-05
2001.15	0.521729	4.91333e-06
2005.47	0.520905	4.69971e-06
2009.85	0.521606	4.13818e-05
2014.17	0.520874	8.94165e-06
2018.49	0.520782	5.64575e-06
2022.87	0.520569	4.11682e-05
2027.19	0.52066	1.04675e-05
2031.51	0.520813	4.5166e-06
2035.89	0.521667	3.07007e-05
2040.21	0.521057	7.38525e-06
2044.55	-0.698181	-0.0191589
2048.91	0.521759	2.62451e-05
2053.23	0.521729	2.89917e-06
2057.57	-0.698853	-0.0156128
2061.93	0.52066	2.99072e-05
2066.25	0.520569	1.07422e-05
2070.59	-0.697998	-0.0135712
2074.95	0.521667	2.04163e-05
2079.27	0.521698	3.14331e-06
2083.61	-0.699219	-0.0120209
2087.97	0.520782	2.48108e-05
2092.29	0.52066	1.05896e-05
2096.65	-0.000488281	0.00749542
2100.99	0.52066	2.36816e-05
2105.31	0.520752	8.75854e-06
2109.67	-3.05176e-05	0.00627747
2114.01	0.521484	1.72119e-05
2118.33	0.521729	2.99072e-06
2122.69	-0.000350952	0.00531036
2127.03	0.521057	1.87073e-05
2131.35	0.521576	4.69971e-06
2135.71	0.000683594	0.00445984
2140.05	0.520752	1.89514e-05
2144.37	0.521698	1.77002e-06
2148.75	0.519958	0.0143738
2153.07	0.520721	1.84937e-05
2157.39	0.520996	6.89697e-06
2161.77	0.520538	0.0104156
2166.09	0.521088	1.39465e-05
2170.41	0.520874	7.99561e-06
2174.79	0.52063	0.00384979
2179.11	0.520813	1.66931e-05
2183.43	0.521729	1.40381e-06
2187.81	0.521667	0.000782166
2192.13	0.520935	1.48926e-05
2196.45	0.521027	5.37109e-06
2200.83	0.52121	0.000359375
2205.15	0.521179	8.60596e-06
2209.47	0.521362	3.479e-06
2213.85	0.521698	0.000209808
2218.17	0.52121	1.11084e-05
2222.49	0.520874	6.22559e-06
2226.87	0.520721	0.000147369
2231.19	0.521759	7.44629e-06
2235.51	0.521606	1.43433e-06
2239.89	0.521606	0.00010321
2244.21	0.52179	7.53784e-06
2248.53	0.52121	2.59399e-06
2252.91	0.52066	8.52661e-05
2257.23	0.521698	7.99561e-06
2261.55	0.52063	4.79126e-06
2265.93	0.521027	6.72607e-05
2270.25	0.52063	1.33057e-05
2274.57	0.520844	5.09644e-06
2278.95	0.520752	5.69763e-05
2283.27	0.520752	1.22986e-05
2287.59	0.521729	1.83105e-07
2291.97	0.520691	4.91943e-05
2296.29	0.520508	1.20544e-05
2300.61	0.520569	6.43921e-06
2304.99	0.520569	4.32739e-05
2309.31	0.520721	1.07727e-05
2313.65	-0.698792	-0.0196259
2318.01	0.521698	3.17078e-05
2322.33	0.52063	1.24512e-05
2326.67	-0.698822	-0.0161072
2331.03	0.52179	2.85034e-05
2335.35	0.52066	1.01318e-05
2339.69	-0.698242	-0.0140594
2344.05	0.52063	3.1311e-05
2348.37	0.52179	3.63159e-06
2352.71	-0.699219	-0.0125488
2357.07	0.521332	2.45972e-05
2361.39	0.520752	9.18579e-06
2365.75	0.000109863	0.0071286
2370.09	0.52121	2.34985e-05
2374.41	0.520721	1.05896e-05
2378.77	7.62939e-05	0.00602936
2383.11	0.521576	1.98364e-05
2387.43	0.521545	4.18091e-06
2391.79	0.00015564	0.00514404
2396.13	0.520782	2.34375e-05
2400.45	0.520752	8.05664e-06
2404.81	0.000460815	0.00437042
2409.15	0.520813	2.1759e-05
2413.47	0.520691	9.765625E-06
2417.85	0.520996	0.014679
2422.17	0.521729	1.51978e-05
2426.49	0.521515	3.02124e-06
2430.87	0.520782	0.0110992
2435.19	0.521729	1.25122e-05
2439.51	0.52066	1.03149e-05
2443.89	0.520752	0.00655182
2448.21	0.521759	1.34583e-05
2452.53	0.52063	7.20215e-06
2456.91	0.521393	0.00113586
2461.23	0.520935	1.57471e-05
2465.55	0.52121	6.073e-06
2469.93	0.520599	0.000473297
2474.25	0.521759	1.08337e-05
2478.57	0.521057	6.56128e-06
2482.95	0.520721	0.000271729
2487.27	0.520599	1.74255e-05
2491.59	0.521515	3.54004e-06
2495.97	0.521057	0.000177856
2500.29	0.521454	1.09253e-05
2504.61	0.520905	8.39233e-06
2508.99	0.520538	0.000131744
2513.31	0.521423	1.22375e-05
2517.63	0.521149	5.18799e-06
2522.01	0.521515	9.66187e-05
2526.33	0.520538	1.60522e-05
2530.65	0.520752	7.41577e-06
2535.03	0.520599	8.28247e-05
2539.35	0.521698	8.11768e-06
2543.67	0.52179	2.71606e-06
2548.05	0.520599	6.87561e-05
2552.37	0.521301	9.94873e-06
2556.69	0.521454	3.78418e-06
2561.07	0.521484	5.33752e-05
2565.39	0.520844	1.19934e-05
2569.71	0.521545	2.65503e-06
2574.09	0.52063	5.14526e-05
2578.41	0.521179	1.1322e-05
2582.75	-0.698273	-0.02005
2587.11	0.520782	4.34875e-05
2591.43	0.521393	8.57544e-06
2595.77	-0.69812	-0.0165863
2600.13	0.521545	3.54919e-05
2604.45	0.521698	4.69971e-06
2608.79	-0.698608	-0.014505
2613.15	0.520569	3.7384e-05
2617.47	0.520691	1.15356e-05
2621.81	-0.698517	-0.0130127
2626.17	0.520599	3.56445e-05
2630.49	0.521637	4.69971e-06
2634.85	0.000531006	0.00680664
2639.19	0.520782	3.08533e-05
2643.51	0.521332	6.62231e-06
2647.87	-0.000106812	0.00580597
2652.21	0.521759	2.2583e-05
2656.53	0.520599	1.21155e-05
2660.89	-0.000228882	0.00498627
2665.23	0.520752	2.70996e-05
2669.55	0.521301	6.95801e-06
2673.91	9.46045e-05	0.00426453
2678.25	0.520721	2.50549e-05
2682.57	0.521179	6.80542e-06
2686.95	0.521088	0.0148621
2691.27	0.521057	2.16064e-05
2695.59	0.521027	8.30078e-06
2699.97	0.520447	0.0115723
2704.29	0.521637	1.72119e-05
2708.61	0.521362	5.95093e-06
2712.99	0.520569	0.00787354
2717.31	0.520721	2.16675e-05
2721.63	0.521637	2.99072e-06
2726.01	0.52066	0.00164246
2730.33	0.521088	1.9043e-05
2734.65	0.52124	6.40869e-06
2739.03	0.520569	0.000606689
2743.35	0.521423	1.26343e-05
2747.67	0.521698	2.7771e-06
2752.05	0.52066	0.000331055
2756.37	0.521362	1.5564e-05
2760.69	0.52066	9.94873e-06
2765.07	0.520813	0.000215149
2769.39	0.52179	1.08337e-05
2773.71	0.521545	3.96729e-06
2778.09	0.521454	0.000149872
2782.41	0.52063	1.53198e-05
2786.73	0.520599	1.02234e-05
2791.11	0.520813	0.000116394
2795.43	0.520813	1.52283e-05
2799.75	0.520782	7.99561e-06
2804.13	0.521515	8.9325e-05
2806.31	0.520905	7.04956e-06