Folder: electrochromicfilms/Edgar/20240522/20240522/electrodeposition_pulsed_potential_20240522_A (part 2)

File: pulses_2000_to_3000.txt
Time (s)	WE(1).Potential (V)	WE(1).Current (A)
2829.38	-0.697632	-0.0202881
2833.74	0.52063	4.99268e-05
2838.06	0.520935	1.19629e-05
2842.4	-0.698883	-0.0169464
2846.76	0.520721	4.40674e-05
2851.08	0.52182	7.2937e-06
2855.42	-0.699066	-0.0148285
2859.78	0.521454	3.54309e-05
2864.1	0.521698	6.80542e-06
2868.44	-0.698273	-0.0133667
2872.8	0.521393	3.38745e-05
2877.12	0.521118	8.14819e-06
2881.48	-0.000170898	0.00653717
2885.82	0.52066	3.43323e-05
2890.14	0.520813	1.01624e-05
2894.5	0.000186157	0.00560699
2898.84	0.52063	3.26233e-05
2903.16	0.520935	9.42993e-06
2907.52	0.00032959	0.0048468
2911.86	0.521057	2.78015e-05
2916.18	0.520966	9.91821e-06
2920.54	0.000784302	0.00416168
2924.88	0.520569	2.8717e-05
2929.2	0.521576	5.09644e-06
2933.58	0.520599	0.0150208
2937.9	0.521484	2.13318e-05
2942.22	0.52121	8.11768e-06
2946.6	0.521179	0.0119019
2950.92	0.520966	2.36816e-05
2955.24	0.520599	1.19019e-05
2959.62	0.521393	0.00856018
2963.94	0.521759	1.67542e-05
2968.26	0.520874	1.05896e-05
2972.64	0.520813	0.00228638
2976.96	0.520966	2.18506e-05
2981.28	0.521301	5.58472e-06
2985.66	0.520966	0.000735474
2989.98	0.521545	1.49841e-05
2994.3	0.52063	1.05286e-05
2998.68	0.521637	0.00037561
3003	0.521027	1.83411e-05
3007.32	0.521515	4.39453e-06
3011.7	0.521515	0.00023941
3016.02	0.521454	1.48926e-05
3020.34	0.521484	5.06592e-06
3024.72	0.521393	0.000166656
3029.04	0.521454	1.49536e-05
3033.36	0.521362	6.7749e-06
3037.74	0.520813	0.000128265
3042.06	0.521057	1.55334e-05
3046.38	0.521515	4.21143e-06
3050.76	0.520752	0.000102295
3055.08	0.521027	1.40076e-05
3059.4	0.520599	1.06812e-05
3063.78	0.521667	7.89185e-05
3068.1	0.520599	1.76392e-05
3072.42	0.521759	3.2959e-06
3076.8	0.520721	7.13501e-05
3081.12	0.521759	1.02539e-05
3085.44	0.520844	6.74438e-06
3089.82	0.520905	6.19812e-05
3094.14	0.521118	1.474e-05
3098.48	-0.698395	-0.0207062
3102.84	0.521057	5.17578e-05
3107.16	0.521484	8.72803e-06
3111.5	-0.698303	-0.0174255
3115.86	0.520996	4.72107e-05
3120.18	0.52066	1.51672e-05
3124.52	-0.6987	-0.0152771
3128.88	0.520691	4.44641e-05
3133.2	0.521149	1.13831e-05
3137.54	-0.699097	-0.0138
3141.9	0.520996	3.88489e-05
3146.22	0.521729	7.23267e-06
3150.58	0.000448608	0.00626892
3154.92	0.52063	3.84521e-05
3159.24	0.521576	7.65991e-06
3163.6	0.000604248	0.0054068
3167.94	0.520569	3.48816e-05
3172.26	0.52124	9.3689e-06
3176.62	0.000622559	0.00469147
3180.96	0.52066	3.41797e-05
3185.28	0.521454	9.27734e-06
3189.64	-3.05176e-05	0.00404877
3193.98	0.521454	2.43835e-05
3198.3	0.520874	1.1322e-05
3202.68	0.520172	0.0151733
3207	0.520599	2.62146e-05
3211.32	0.520905	1.03149e-05
3215.7	0.520813	0.0122406
3220.02	0.521606	2.12708e-05
3224.34	0.52182	4.94385e-06
3228.72	0.52124	0.00920715
3233.04	0.520721	2.59094e-05
3237.36	0.52063	1.21765e-05
3241.74	0.521667	0.00363251
3246.06	0.521759	1.66931e-05
3250.38	0.521301	8.91113e-06
3254.76	0.520874	0.000953674
3259.08	0.521149	2.12097e-05
3263.4	0.520935	1.00403e-05
3267.78	0.521118	0.00045755
3272.1	0.52063	2.32239e-05
3276.42	0.520782	9.94873e-06
3280.8	0.52066	0.000281311
3285.12	0.521576	1.69067e-05
3289.44	0.520569	1.13831e-05
3293.82	0.521698	0.000188263
3298.14	0.521423	1.51062e-05
3302.46	0.520813	9.85718e-06
3306.84	0.52063	0.000145752
3311.16	0.521149	1.58691e-05
3315.48	0.520691	1.1322e-05
3319.86	0.52066	0.000113861
3324.18	0.521149	1.6571e-05
3328.5	0.520905	7.56836e-06
3332.88	0.52063	9.52759e-05
3337.2	0.52124	1.51978e-05
3341.52	0.521759	2.71606e-06
3345.9	0.521271	7.60803e-05
3350.22	0.520599	1.79138e-05
3354.54	0.521759	4.02832e-06
3358.92	0.521667	6.20117e-05
3363.24	0.520782	1.5625e-05
3367.58	-0.698639	-0.0210052
3371.94	0.520782	5.94482e-05
3376.26	0.521576	1.14441e-05
3380.6	-0.698242	-0.0178101
3384.96	0.521698	4.69971e-05
3389.28	0.521515	1.02234e-05
3393.62	-0.699005	-0.0156525
3397.98	0.521637	4.15955e-05
3402.3	0.521698	8.54492e-06
3406.64	-0.69873	-0.0141754
3411	0.52063	4.45557e-05
3415.32	0.520721	1.43738e-05
3419.68	0.000299072	0.0060083
3424.02	0.521759	3.39966e-05
3428.34	0.521545	9.8877e-06
3432.7	0.000628662	0.00519104
3437.04	0.521332	3.40271e-05
3441.36	0.521179	1.10779e-05
3445.72	0.00043335	0.00451508
3450.06	0.521393	2.81982e-05
3454.38	0.521088	1.33057e-05
3458.74	0.0006073	0.00390228
3463.08	0.521484	2.7832e-05
3467.4	0.521606	6.13403e-06
3471.78	0.520691	0.0152222
3476.1	0.52182	2.36511e-05
3480.42	0.520844	1.15356e-05
3484.8	0.520386	0.0124847
3489.12	0.521667	2.23694e-05
3493.44	0.52066	1.36719e-05
3497.82	0.520264	0.00967407
3502.14	0.521454	2.07214e-05
3506.46	0.521667	6.98853e-06
3510.84	0.520905	0.00535614
3515.16	0.521149	2.31323e-05
3519.48	0.521149	1.02539e-05
3523.86	0.521637	0.00121552
3528.18	0.521851	1.73035e-05
3532.5	0.52063	1.25122e-05
3536.88	0.521729	0.000548096
3541.2	0.520935	2.15759e-05
3545.52	0.52066	1.16577e-05
3549.9	0.521301	0.000319275
3554.22	0.520782	2.31934e-05
3558.54	0.521484	6.22559e-06
3562.92	0.52182	0.000208771
3567.24	0.521698	1.52893e-05
3571.56	0.520905	1.0498e-05
3575.94	0.52066	0.000159058
3580.26	0.521423	1.54724e-05
3584.58	0.521729	4.69971e-06
3588.96	0.521057	0.000123596
3593.28	0.521698	1.36108e-05
3597.6	0.520691	1.12915e-05
3601.98	0.520599	0.000101227
3606.3	0.52066	1.87378e-05
3610.62	0.520844	1.08948e-05
3615	0.521667	7.83081e-05
3619.32	0.52066	1.74255e-05
3623.64	0.52124	7.01904e-06
3628.02	0.521027	7.07703e-05
3632.34	0.521729	1.21765e-05
3636.68	-0.697937	-0.021283
3641.04	0.520721	6.26526e-05
3645.36	0.52179	1.10779e-05
3649.7	-0.698273	-0.0181946
3654.06	0.521729	5.09033e-05
3658.38	0.520569	1.7395e-05
3662.72	-0.698151	-0.0160461
3667.08	0.520752	5.12695e-05
3671.4	0.520844	1.62048e-05
3675.74	-0.698059	-0.0145416
3680.1	0.52066	4.67224e-05
3684.42	0.521576	9.70459e-06
3688.78	0.000213623	0.00573181
3693.12	0.520996	4.08936e-05
3697.44	0.520813	1.46484e-05
3701.8	0.000534058	0.00495758
3706.14	0.521301	3.51562e-05
3710.46	0.521606	1.02539e-05
3714.82	-0.000332642	0.00431885
3719.16	0.521332	3.2959e-05
3723.48	0.521393	1.03149e-05
3727.84	0.00055542	0.00373352
3732.18	0.520844	3.38745e-05
3736.5	0.52063	1.48315e-05
3740.88	0.519989	0.0152832
3745.2	0.520508	3.36609e-05
3749.52	0.520813	1.27258e-05
3753.9	0.520966	0.012677
3758.22	0.521423	2.56653e-05
3762.54	0.520782	1.24817e-05
3766.92	0.52124	0.0101227
3771.24	0.52063	2.86255e-05
3775.56	0.52179	6.68335e-06
3779.94	0.520416	0.00692719
3784.26	0.521088	2.45972e-05
3788.58	0.520599	1.33362e-05
3792.96	0.521057	0.00174408
3797.28	0.521759	1.96228e-05
3801.6	0.521118	8.14819e-06
3805.98	0.520966	0.000719604
3810.3	0.52179	1.828e-05
3814.62	0.52121	9.18579e-06
3819	0.521088	0.000397888
3823.32	0.520569	2.35901e-05
3827.64	0.520691	1.27258e-05
3832.02	0.521515	0.000249298
3836.34	0.52066	2.31323e-05
3840.66	0.521667	5.06592e-06
3845.04	0.52063	0.000181396
3849.36	0.520752	2.05688e-05
3853.68	0.521576	6.46973e-06
3858.06	0.521088	0.000136688
3862.38	0.52066	2.05078e-05
3866.7	0.521637	4.39453e-06
3871.08	0.520782	0.000109528
3875.4	0.521301	1.68152e-05
3879.72	0.52179	5.43213e-06
3884.1	0.521637	8.57849e-05
3888.42	0.52063	2.02942e-05
3892.74	0.520996	9.33838e-06
3897.12	0.521027	7.55005e-05
3901.44	0.52124	1.46484e-05
3905.78	-0.698212	-0.0215454
3910.14	0.520874	6.6925e-05
3914.46	0.520721	1.70593e-05
3918.8	-0.69873	-0.0185516
3923.16	0.521454	5.5542e-05
3927.48	0.52121	1.35193e-05
3931.82	-0.698914	-0.0164307
3936.18	0.520752	5.4657e-05
3940.5	0.521545	1.22375e-05
3944.84	-0.69812	-0.0149139
3949.2	0.520844	4.81567e-05
3953.52	0.521759	1.04065e-05
3957.88	-0.000387573	0.00544952
3962.22	0.520844	4.3457e-05
3966.54	0.52121	1.34277e-05
3970.9	-0.000115967	0.0047171
3975.24	0.520996	3.94287e-05
3979.56	0.521698	9.39941e-06
3983.92	0.000665283	0.00410217
3988.26	0.52124	3.38135e-05
3992.58	0.520721	1.43738e-05
3996.94	0.000790405	0.00355133
4001.28	0.520752	3.57971e-05
4005.6	0.520599	1.49231e-05
4009.98	0.520203	0.015271
4014.3	0.521118	3.12195e-05
4018.62	0.521637	7.2937e-06
4023	0.520782	0.0128357
4027.32	0.521149	2.79541e-05
4031.64	0.520782	1.27258e-05
4036.02	0.52124	0.0104492
4040.34	0.521606	2.36511e-05
4044.66	0.521454	8.91113e-06
4049.04	0.520477	0.0077301
4053.36	0.520844	2.86255e-05
4057.68	0.521637	6.83594e-06
4062.06	0.520721	0.00253082
4066.38	0.520782	2.66724e-05
4070.7	0.521667	6.68335e-06
4075.08	0.521454	0.000928955
4079.4	0.521362	2.15149e-05
4083.72	0.520782	1.26648e-05
4088.1	0.52121	0.000491608
4092.42	0.521332	1.98975e-05
4096.74	0.520599	1.26953e-05
4101.12	0.521118	0.000305481
4105.44	0.520752	2.32849e-05
4109.76	0.521667	5.76782e-06
4114.14	0.521393	0.000206146
4118.46	0.521729	1.55945e-05
4122.78	0.521149	9.73511e-06
4127.16	0.521149	0.00015271
4129.34	0.521179	7.23267e-06

File: pulses_3000_to_4000.txt
Time (s)	WE(1).Potential (V)	WE(1).Current (A)
4152.52	-0.697601	-0.0216461
4156.88	0.521179	6.83899e-05
4161.2	0.521729	1.23596e-05
4165.54	-0.698547	-0.0188049
4169.9	0.520782	6.39038e-05
4174.22	0.520691	1.92871e-05
4178.56	-0.698669	-0.0167389
4182.92	0.52124	5.44128e-05
4187.24	0.521393	1.23596e-05
4191.58	-0.697998	-0.015213
4195.94	0.520844	5.09949e-05
4200.26	0.520813	1.59302e-05
4204.62	-0.000244141	0.00521362
4208.96	0.52066	4.81262e-05
4213.28	0.520966	1.66016e-05
4217.64	0.000396729	0.00449463
4221.98	0.520905	4.37927e-05
4226.3	0.520935	1.38855e-05
4230.66	0.000454712	0.00390381
4235	0.52066	4.15955e-05
4239.32	0.521729	9.3689e-06
4243.68	0.000363159	0.00338135
4248.02	0.521088	3.61633e-05
4252.34	0.521667	8.48389e-06
4256.72	0.519836	0.015274
4261.04	0.520966	3.33252e-05
4265.36	0.521851	8.5144e-06
4269.74	0.520599	0.0129181
4274.06	0.520752	3.53699e-05
4278.38	0.521515	8.57544e-06
4282.76	0.520966	0.0106842
4287.08	0.521698	2.55127e-05
4291.4	0.52063	1.37634e-05
4295.78	0.520203	0.00822144
4300.1	0.521667	2.40479e-05
4304.42	0.520721	1.33057e-05
4308.8	0.521576	0.00351379
4313.12	0.520874	2.76184e-05
4317.44	0.520844	1.34888e-05
4321.82	0.521454	0.00114655
4326.14	0.520966	2.61841e-05
4330.46	0.521667	7.65991e-06
4334.84	0.520569	0.000591736
4339.16	0.521393	2.03247e-05
4343.48	0.521454	8.02612e-06
4347.86	0.520905	0.000357697
4352.18	0.52066	2.57568e-05
4356.5	0.520691	1.28784e-05
4360.88	0.521759	0.000233246
4365.2	0.521271	2.09045e-05
4369.52	0.520691	1.35193e-05
4373.9	0.520874	0.000171997
4378.22	0.521515	1.68762e-05
4382.54	0.521698	5.52368e-06
4386.92	0.520599	0.000133636
4391.24	0.520782	2.15759e-05
4395.56	0.520905	1.0498e-05
4399.94	0.521576	0.000101196
4404.26	0.521667	1.41296e-05
4408.58	0.52063	1.2146e-05
4412.96	0.520966	8.84094e-05
4417.28	0.520844	1.97754e-05
4421.62	-0.69751	-0.0219269
4425.98	0.521729	7.15942e-05
4430.3	0.52121	1.59302e-05
4434.64	-0.698517	-0.0191376
4439	0.521454	6.37207e-05
4443.32	0.52179	1.15967e-05
4447.66	-0.698029	-0.0170898
4452.02	0.521606	5.64575e-05
4456.34	0.521179	1.47705e-05
4460.68	-0.698914	-0.0155457
4465.04	0.521118	5.23376e-05
4469.36	0.521362	1.33972e-05
4473.72	0.000585937	0.00492035
4478.06	0.520813	4.95911e-05
4482.38	0.521729	1.02844e-05
4486.74	5.18799e-05	0.00423553
4491.08	0.521606	4.04968e-05
4495.4	0.520935	1.51672e-05
4499.76	0.00078125	0.0036731
4504.1	0.521545	3.66211e-05
4508.42	0.521362	1.23291e-05
4512.78	0.000723267	0.0031778
4517.12	0.521698	3.22876e-05
4521.44	0.521057	1.33362e-05
4525.82	0.519806	0.0152252
4530.14	0.521667	3.1189e-05
4534.46	0.52063	1.6571e-05
4538.84	0.520782	0.0129944
4543.16	0.521454	2.98767e-05
4547.48	0.521149	1.2207e-05
4551.86	0.52121	0.0108978
4556.18	0.521271	2.88696e-05
4560.5	0.521149	1.08337e-05
4564.88	0.521057	0.00868835
4569.2	0.521759	2.50244e-05
4573.52	0.521729	7.35474e-06
4577.9	0.520935	0.00520935
4582.22	0.520752	2.80151e-05
4586.54	0.521057	1.21765e-05
4590.92	0.521332	0.00151398
4595.24	0.520813	2.69165e-05
4599.56	0.520721	1.20544e-05
4603.94	0.521606	0.000740662
4608.26	0.521332	2.29797e-05
4612.58	0.521057	1.06201e-05
4616.96	0.520905	0.00043869
4621.28	0.521027	2.45972e-05
4625.6	0.521729	6.92749e-06
4629.98	0.521698	0.000283264
4634.3	0.521515	2.03552e-05
4638.62	0.520508	1.35498e-05
4643	0.521362	0.000200928
4647.32	0.521362	1.89514e-05
4651.64	0.521637	6.50024e-06
4656.02	0.521118	0.00014978
4660.34	0.52179	1.72729e-05
4664.66	0.520752	1.09253e-05
4669.04	0.521423	0.000115967
4673.36	0.520569	2.27051e-05
4677.68	0.521698	4.88281e-06
4682.06	0.520935	9.82056e-05
4686.38	0.520874	2.04163e-05
4690.72	-0.697845	-0.02211
4695.08	0.521759	7.79419e-05
4699.4	0.520752	2.04773e-05
4703.74	-0.69873	-0.0194244
4708.1	0.520935	7.11365e-05
4712.42	0.520935	1.81885e-05
4716.76	-0.698822	-0.0174255
4721.12	0.521057	6.19812e-05
4725.44	0.521362	1.65405e-05
4729.78	-0.697998	-0.0159027
4734.14	0.521729	5.11475e-05
4738.46	0.521149	1.60828e-05
4742.82	0.00057373	0.00463684
4747.16	0.520813	5.02014e-05
4751.48	0.52121	1.4679e-05
4755.84	0.000219727	0.00397522
4760.18	0.521027	4.53186e-05
4764.5	0.520966	1.60522e-05
4768.86	-0.000274658	0.00344635
4773.2	0.521057	4.20532e-05
4777.52	0.520691	1.67236e-05
4781.88	0.000570679	0.00297943
4786.22	0.520844	4.04968e-05
4790.54	0.521057	1.3092e-05
4794.92	0.520447	0.0151855
4799.24	0.521271	3.45154e-05
4803.56	0.52179	1.01013e-05
4807.94	0.520264	0.0130646
4812.26	0.520813	3.50037e-05
4816.58	0.521271	1.27563e-05
4820.96	0.520874	0.0110809
4825.28	0.521576	2.81982e-05
4829.6	0.520569	1.55334e-05
4833.98	0.521118	0.0090332
4838.3	0.521637	2.48718e-05
4842.62	0.520752	1.48926e-05
4847	0.520538	0.00633087
4851.32	0.521362	2.63367e-05
4855.64	0.521301	1.12305e-05
4860.02	0.521637	0.00198639
4864.34	0.521149	2.58179e-05
4868.66	0.521759	7.84302e-06
4873.04	0.521362	0.000918579
4877.36	0.521729	2.06299e-05
4881.68	0.521851	7.47681e-06
4886.06	0.521301	0.000533752
4890.38	0.521362	2.23389e-05
4894.7	0.521271	1.13831e-05
4899.08	0.521667	0.000341858
4903.4	0.521088	2.18201e-05
4907.72	0.521271	1.04675e-05
4912.1	0.520966	0.000238678
4916.42	0.52066	2.43835e-05
4920.74	0.521393	9.61304e-06
4925.12	0.521515	0.000172485
4929.44	0.521667	1.72729e-05
4933.76	0.521301	9.97925e-06
4938.14	0.52063	0.000137177
4942.46	0.521484	1.76086e-05
4946.78	0.521271	7.47681e-06
4951.16	0.520599	0.000109161
4955.48	0.521729	1.52283e-05
4959.82	-0.697998	-0.0222717
4964.18	0.521484	8.6792e-05
4968.5	0.520813	1.93787e-05
4972.84	-0.697662	-0.0196899
4977.2	0.520844	7.52869e-05
4981.52	0.521332	1.61438e-05
4985.86	-0.698639	-0.017746
4990.22	0.520782	6.76575e-05
4994.54	0.521637	1.24512e-05
4998.88	-0.697845	-0.0162354
5003.24	0.52066	6.12488e-05
5007.56	0.521088	1.4801e-05
5011.92	-0.000357056	0.00435577
5016.26	0.520538	5.5481e-05
5020.58	0.521515	1.27869e-05
5024.94	0.000341797	0.00371765
5029.28	0.52066	5.05371e-05
5033.6	0.52063	1.80969e-05
5037.96	0.000616455	0.0032077
5042.3	0.520691	4.63257e-05
5046.62	0.52066	1.62048e-05
5050.98	-0.000350952	0.00278961
5055.32	0.521088	4.10767e-05
5059.64	0.520752	1.63269e-05
5064.02	0.520782	0.0151489
5068.34	0.521667	3.40576e-05
5072.66	0.520691	1.61743e-05
5077.04	0.520203	0.0131073
5081.36	0.520752	3.64075e-05
5085.68	0.52121	1.19019e-05
5090.06	0.520996	0.0112335
5094.38	0.520599	3.58887e-05
5098.7	0.521423	1.12305e-05
5103.08	0.520813	0.00932922
5107.4	0.521729	2.74963e-05
5111.72	0.52063	1.51062e-05
5116.1	0.52124	0.00703308
5120.42	0.521698	2.45972e-05
5124.74	0.521088	1.22986e-05
5129.12	0.520782	0.00266144
5133.44	0.520782	2.91138e-05
5137.76	0.521362	1.15662e-05
5142.14	0.52124	0.00113831
5146.46	0.520844	2.82288e-05
5150.78	0.520752	1.43127e-05
5155.16	0.521515	0.000646973
5159.48	0.521698	2.11487e-05
5163.8	0.521332	9.765625E-06
5168.18	0.521759	0.00040976
5172.5	0.521149	2.21863e-05
5176.82	0.520996	1.04065e-05
5181.2	0.521301	0.000282898
5185.52	0.521667	1.81885e-05
5189.84	0.521179	1.0498e-05
5194.22	0.520752	0.000207703
5198.54	0.52063	2.43835e-05
5202.86	0.52066	1.37939e-05
5207.24	0.520752	0.000156158
5211.56	0.521545	1.78833e-05
5215.88	0.521729	5.70679e-06
5220.26	0.521179	0.000118073
5224.58	0.520844	2.00195e-05
5228.92	-0.697601	-0.0224731
5233.28	0.521271	9.61304e-05
5237.6	0.521606	1.828e-05
5241.94	-0.698608	-0.0199646
5246.3	0.521545	7.86133e-05
5250.62	0.520569	2.14844e-05
5254.96	-0.697754	-0.0180664
5259.32	0.521729	6.58569e-05
5263.64	0.521606	1.52588e-05
5267.98	-0.698456	-0.016571
5272.34	0.520874	6.38733e-05
5276.66	0.520935	1.74866e-05
5281.02	0.000421143	0.004086
5285.36	0.521729	5.02625e-05
5289.68	0.520599	1.87073e-05
5294.04	-0.000259399	0.00347504
5298.38	0.520874	5.0354e-05
5302.7	0.521515	1.29395e-05
5307.06	-0.000134277	0.0030011
5311.4	0.521545	4.22363e-05
5315.72	0.521698	1.15356e-05
5320.08	0.000692749	0.00259735
5324.42	0.521576	3.8208e-05
5328.74	0.521423	1.51367e-05
5333.12	0.520599	0.0151154
5337.44	0.521698	3.44238e-05
5341.76	0.520721	1.67542e-05
5346.14	0.520752	0.0131714
5350.46	0.521698	3.10974e-05
5354.78	0.521423	1.30615e-05
5359.16	0.520813	0.0113647
5363.48	0.521088	3.27148e-05
5367.8	0.521667	1.03149e-05
5372.18	0.520813	0.00958557
5376.5	0.52063	3.38745e-05
5380.82	0.521454	1.12915e-05
5385.2	0.520599	0.00754395
5389.52	0.521484	2.67334e-05
5393.84	0.521484	1.06506e-05
5398.22	0.520874	0.0036496
5402.54	0.521454	2.41699e-05
5406.86	0.521332	9.33838e-06
5411.24	0.52066	0.00141815
5415.56	0.52124	2.6062e-05
5419.88	0.521393	1.07422e-05
5424.26	0.520691	0.000787048
5428.58	0.521759	2.09351e-05
5432.9	0.521484	8.48389e-06
5437.28	0.521667	0.000492859
5441.6	0.521118	2.36511e-05
5445.92	0.520966	1.31531e-05
5450.3	0.520691	0.00034079
5452.48	0.521454	8.45337e-06