Folder: electrochromicfilms/Edgar/20240605/20240605/electrodeposition_pulsed_potential_20240605_B/data

File: OCP_1
Time (s)	WE(1).Potential (V)
2.15622	0.580444
3.15622	0.580444
4.15622	0.580444
5.15622	0.580444
6.15622	0.58075
7.15622	0.58075
8.15622	0.58075
9.15622	0.58075
10.1562	0.58075
11.1562	0.581055
12.1562	0.581055
13.1562	0.581055
14.1562	0.581055
15.1562	0.581055
16.1562	0.58136
17.1562	0.58136
18.1562	0.58136
19.1562	0.58136
20.1562	0.58136
21.1562	0.581665
22.1562	0.581665
23.1562	0.581665
24.1562	0.581665
25.1562	0.58197
26.1562	0.58197
27.1562	0.58197
28.1562	0.58197
29.1562	0.58197
30.1562	0.582275
31.1562	0.582275
32.1562	0.582275
33.1562	0.582581
34.1562	0.582581
35.1562	0.582581
36.1562	0.582581
37.1562	0.582886
38.1562	0.582886
39.1562	0.582886
40.1562	0.582886
41.1562	0.582886
42.1562	0.582886
43.1562	0.583191
44.1562	0.583191
45.1562	0.583191
46.1562	0.583496
47.1562	0.583496
48.1562	0.583496
49.1562	0.583496
50.1562	0.583496
51.1562	0.583801
52.1562	0.583801
53.1562	0.583801
54.1562	0.583801
55.1562	0.584106
56.1562	0.584106
57.1562	0.584106
58.1562	0.584106
59.1562	0.584106
60.1562	0.584412
61.1562	0.584412
62.1562	0.584412
63.1562	0.584717
64.1562	0.584717
65.1562	0.584717
66.1562	0.584717
67.1562	0.584717
68.1562	0.585022
69.1562	0.585022
70.1562	0.585022
71.1562	0.585022
72.1562	0.585327
73.1562	0.585327
74.1562	0.585327
75.1562	0.585327
76.1562	0.585632
77.1562	0.585632
78.1562	0.585632
79.1562	0.585632
80.1562	0.5859375
81.1562	0.5859375
82.1562	0.5859375
83.1562	0.5859375
84.1562	0.5859375
85.1562	0.586243
86.1562	0.586243
87.1562	0.586243
88.1562	0.586243
89.1562	0.586548
90.1562	0.586548
91.1562	0.586548
92.1562	0.586548
93.1562	0.586548
94.1562	0.586548
95.1562	0.586853
96.1562	0.586853
97.1562	0.586853
98.1562	0.587158
99.1562	0.587158
100.156	0.587158
101.156	0.587158
102.156	0.587463
103.156	0.587463
104.156	0.587463
105.156	0.587463
106.156	0.587769
107.156	0.587769
108.156	0.587769
109.156	0.587769
110.156	0.587769
111.156	0.588074
112.156	0.588074
113.156	0.588074
114.156	0.588074
115.156	0.588379
116.156	0.588379
117.156	0.588379
118.156	0.588379
119.156	0.588684
120.156	0.588684
121.156	0.588684
122.156	0.588684
123.156	0.588989
124.156	0.588989
125.156	0.588989
126.156	0.588989
127.156	0.588989
128.156	0.589294
129.156	0.589294
130.156	0.589294
131.156	0.589294
132.156	0.5896
133.156	0.5896
134.156	0.5896
135.156	0.5896
136.156	0.589905
137.156	0.589905
138.156	0.589905
139.156	0.589905
140.156	0.59021
141.156	0.59021
142.156	0.59021
143.156	0.59021
144.156	0.59021
145.156	0.59021
146.156	0.590515
147.156	0.590515
148.156	0.590515
149.156	0.590515
150.156	0.59082
151.156	0.59082
152.156	0.59082
153.156	0.59082
154.156	0.59082
155.156	0.591125
156.156	0.591125
157.156	0.591125
158.156	0.591125
159.156	0.591431
160.156	0.591431
161.156	0.591431
162.156	0.591431
163.156	0.591431
164.156	0.591736
165.156	0.591736
166.156	0.591736
167.156	0.591736
168.156	0.592041
169.156	0.592041
170.156	0.592041
171.156	0.592041
172.156	0.592041
173.156	0.592041
174.156	0.592346
175.156	0.592346
176.156	0.592346
177.156	0.592346
178.156	0.592346
179.156	0.592651
180.156	0.592651
181.156	0.592651

File: OCP_3
Time (s)	WE(1).Potential (V)
4435.1	0.0362335
4436.1	0.0517273
4437.1	0.0658875
4438.1	0.0788574
4439.1	0.0909119
4440.1	0.102112
4441.1	0.11261
4442.1	0.122406
4443.1	0.131561
4444.1	0.140137
4445.1	0.148132
4446.1	0.155701
4447.1	0.16275
4448.1	0.169342
4449.1	0.175659
4450.1	0.181488
4451.1	0.187012
4452.1	0.192291
4453.1	0.197266
4454.1	0.201996
4455.1	0.206512
4456.1	0.210876
4457.1	0.214996
4458.1	0.218903
4459.1	0.222748
4460.1	0.22644
4461.1	0.229889
4462.1	0.233307
4463.1	0.236633
4464.1	0.239716
4465.1	0.242828
4466.1	0.24588
4467.1	0.24881
4468.1	0.251709
4469.1	0.254608
4470.1	0.257416
4471.1	0.260162
4472.1	0.262848
4473.1	0.265533
4474.1	0.268219
4475.1	0.270874
4476.1	0.273529
4477.1	0.276154
4478.1	0.278748
4479.1	0.281342
4480.1	0.283905
4481.1	0.286499
4482.1	0.2890625
4483.1	0.291748
4484.1	0.294403
4485.1	0.297028
4486.1	0.299805
4487.1	0.30249
4488.1	0.305267
4489.1	0.308044
4490.1	0.310944
4491.1	0.313843
4492.1	0.316772
4493.1	0.319733
4494.1	0.322815
4495.1	0.325989
4496.1	0.329193
4497.1	0.332458
4498.1	0.335815
4499.1	0.339233
4500.1	0.342804
4501.1	0.346375
4502.1	0.350006
4503.1	0.353699
4504.1	0.357574
4505.1	0.361481
4506.1	0.36554
4507.1	0.369568
4508.1	0.373657
4509.1	0.377838
4510.1	0.38205
4511.1	0.386353
4512.1	0.390686
4513.1	0.39502
4514.1	0.399353
4515.1	0.403717
4516.1	0.408234
4517.1	0.412689
4518.1	0.417145
4519.1	0.421692
4520.1	0.4263
4521.1	0.431
4522.1	0.435669
4523.1	0.440491
4524.1	0.445343
4525.1	0.450256
4526.1	0.455292
4527.1	0.460388
4528.1	0.465546
4529.1	0.470795
4530.1	0.476257
4531.1	0.48172
4532.1	0.487274
4533.1	0.492889
4534.1	0.498474
4535.1	0.504456
4536.1	0.509949
4537.1	0.515442
4538.1	0.520935
4539.1	0.525818
4540.1	0.530701
4541.1	0.535278
4542.1	0.539246
4543.1	0.542908
4544.1	0.545959
4545.1	0.548706
4546.1	0.550842
4547.1	0.552673
4548.1	0.554199
4549.1	0.555725
4550.1	0.556641
4551.1	0.557556
4552.1	0.558472
4553.1	0.559082
4554.1	0.559387
4555.1	0.559692
4556.1	0.559998
4557.1	0.560303
4558.1	0.560608
4559.1	0.560913
4560.1	0.560913
4561.1	0.561218
4562.1	0.561218
4563.1	0.561218
4564.1	0.561523
4565.1	0.561523
4566.1	0.561523
4567.1	0.561829
4568.1	0.561829
4569.1	0.561829
4570.1	0.561829
4571.1	0.561829
4572.1	0.561829
4573.1	0.561829
4574.1	0.561829
4575.1	0.562134
4576.1	0.562134
4577.1	0.562134
4578.1	0.562134
4579.1	0.562134
4580.1	0.562134
4581.1	0.562134
4582.1	0.562134
4583.1	0.562134
4584.1	0.562134
4585.1	0.562134
4586.1	0.562134
4587.1	0.562134
4588.1	0.562134
4589.1	0.562134
4590.1	0.562134
4591.1	0.562134
4592.1	0.562134
4593.1	0.562134
4594.1	0.562134
4595.1	0.561829
4596.1	0.561829
4597.1	0.561829
4598.1	0.561829
4599.1	0.561829
4600.1	0.561829
4601.1	0.561829
4602.1	0.561829
4603.1	0.561829
4604.1	0.561829
4605.1	0.561829
4606.1	0.561829
4607.1	0.561829
4608.1	0.561829
4609.1	0.561829
4610.1	0.561829
4611.1	0.561829
4612.1	0.561829
4613.1	0.561829
4614.1	0.561829