Folder: electrochromicfilms/Edgar/20230810 (1)/WO3_ITO_20230717_H

File: CA_2
Time (s)	WE(1).Potential (V)	WE(1).Current (A)
41.0452	-0.699799	-0.00271912
42.0452	-0.698761	-0.00274078
43.0452	-0.699005	-0.00287537
44.0452	-0.698669	-0.00282959
45.0452	-0.698853	-0.00276245
46.0452	-0.699036	-0.00269989
47.0452	-0.698975	-0.00263885
48.0452	-0.6987	-0.00257996
49.0452	-0.698822	-0.00252228
50.0452	-0.699005	-0.00246735
51.0452	-0.698883	-0.00241394
52.0452	-0.698853	-0.00236237
53.0452	-0.699097	-0.00231323
54.0452	-0.698944	-0.00226593
55.0452	-0.698975	-0.00222076
56.0452	-0.699188	-0.00217773
57.0452	-0.698822	-0.00213654
58.0452	-0.699036	-0.00209747
59.0452	-0.698792	-0.00205963
60.0452	-0.698944	-0.00201416
61.0452	-0.699005	-0.00198486
62.0452	-0.699158	-0.00195557
63.0452	-0.699005	-0.00192627
64.0452	-0.698914	-0.00189758
65.0452	-0.699219	-0.0018689
66.0452	-0.698853	-0.00184174
67.0452	-0.698975	-0.00181549
68.0452	-0.698822	-0.00178925
69.0452	-0.69928	-0.00176361
70.0452	-0.699036	-0.00174225
71.0452	-0.698883	-0.00172058
72.0452	-0.699005	-0.00169922
73.0452	-0.699249	-0.00167786
74.0452	-0.698975	-0.00165863
75.0452	-0.698822	-0.00163971
76.0452	-0.699097	-0.00162079
77.0452	-0.69928	-0.00160431
78.0452	-0.699066	-0.00158722
79.0452	-0.698944	-0.00157166
80.0452	-0.699005	-0.00155548
81.0452	-0.699097	-0.00154083
82.0452	-0.699036	-0.00152618
83.0452	-0.69928	-0.00151184
84.0452	-0.698883	-0.00149841
85.0452	-0.699402	-0.00148407
86.0452	-0.698944	-0.00147217
87.0452	-0.699371	-0.00145966
88.0452	-0.699005	-0.00144775
89.0452	-0.699066	-0.0014325
90.0452	-0.699341	-0.00142395
91.0452	-0.699127	-0.00141266
92.0452	-0.699005	-0.00140167
93.0452	-0.69931	-0.00139069
94.0452	-0.69928	-0.00137939
95.0452	-0.699188	-0.00136932
96.0452	-0.699036	-0.00135895
97.0452	-0.699036	-0.00134613
98.0452	-0.699341	-0.0013385
99.0452	-0.699341	-0.00132935
100.045	-0.699371	-0.00131989
101.045	-0.699127	-0.00131104
102.045	-0.699066	-0.00130188
103.045	-0.699249	-0.00128693
104.045	-0.699371	-0.00128265
105.045	-0.699097	-0.00127441
106.045	-0.69931	-0.00126343
107.045	-0.699066	-0.00125732
108.045	-0.69931	-0.00124969
109.045	-0.699432	-0.00124146
110.045	-0.69931	-0.00123352
111.045	-0.699341	-0.00122559
112.045	-0.699371	-0.00121765
113.045	-0.699463	-0.00120972
114.045	-0.699097	-0.00120209
115.045	-0.699066	-0.00119446
116.045	-0.699219	-0.00118713
117.045	-0.699097	-0.00118011
118.045	-0.699066	-0.00117157
119.045	-0.699127	-0.00116455
120.045	-0.699127	-0.00115814
121.045	-0.699097	-0.00115143
122.045	-0.699005	-0.00114471
123.045	-0.699158	-0.001138
124.045	-0.699341	-0.00113098
125.045	-0.699249	-0.00112427
126.045	-0.699097	-0.00111755
127.045	-0.698975	-0.00110992
128.045	-0.699432	-0.00110474
129.045	-0.699432	-0.00109833
130.045	-0.699097	-0.00109192
131.045	-0.699371	-0.00108582
132.045	-0.69928	-0.00107971
133.045	-0.699249	-0.00107361
134.045	-0.699066	-0.0010675
135.045	-0.699066	-0.00106171
136.045	-0.699036	-0.00105591
137.045	-0.699188	-0.00105011
138.045	-0.699127	-0.00104462
139.045	-0.699432	-0.00103851
140.045	-0.699036	-0.00103333
141.045	-0.699249	-0.00102661
142.045	-0.699432	-0.00102234
143.045	-0.699097	-0.00101715
144.045	-0.699432	-0.00101196
145.045	-0.699036	-0.00100677
146.045	-0.699158	-0.00100128
147.045	-0.699036	-0.000996399
148.045	-0.699158	-0.000991516
149.045	-0.699127	-0.000986633
150.045	-0.699127	-0.000977783
151.045	-0.699066	-0.000975342
152.045	-0.699188	-0.000971375
153.045	-0.699066	-0.000967102
154.045	-0.69931	-0.000961609
155.045	-0.699341	-0.000957336
156.045	-0.699432	-0.000952759
157.045	-0.699158	-0.000948181
158.045	-0.699402	-0.000942993
159.045	-0.69931	-0.000939026
160.045	-0.699219	-0.000934753
161.045	-0.69931	-0.000930176
162.045	-0.699249	-0.000925598
163.045	-0.699432	-0.0009198
164.045	-0.699432	-0.000917358
165.045	-0.699249	-0.000911255
166.045	-0.699097	-0.000908813
167.045	-0.69928	-0.000904541
168.045	-0.699371	-0.000900879
169.045	-0.699341	-0.000897217
170.045	-0.699188	-0.000893555
171.045	-0.699127	-0.000887451
172.045	-0.699432	-0.000885925
173.045	-0.699188	-0.000881348
174.045	-0.699463	-0.000877991
175.045	-0.699371	-0.000871887
176.045	-0.699463	-0.000869141
177.045	-0.699341	-0.000863037
178.045	-0.699097	-0.000862427
179.045	-0.699188	-0.000858765
180.045	-0.699097	-0.000855103
181.045	-0.699432	-0.000851746
182.045	-0.69928	-0.000848083
183.045	-0.699127	-0.000844727
184.045	-0.699493	-0.000840759
185.045	-0.699249	-0.000837402
186.045	-0.699158	-0.000834351
187.045	-0.699341	-0.000830688
188.045	-0.69931	-0.000826416
189.045	-0.699127	-0.000823364
190.045	-0.69928	-0.000820923
191.045	-0.699402	-0.000817871
192.045	-0.699219	-0.000814514
193.045	-0.699341	-0.000810852
194.045	-0.699188	-0.000805054
195.045	-0.699432	-0.000802917
196.045	-0.699127	-0.000799866
197.045	-0.699341	-0.000797119
198.045	-0.699127	-0.000794373
199.045	-0.699432	-0.000791931
200.045	-0.69928	-0.000789185
201.045	-0.699524	-0.000786438
202.045	-0.699127	-0.00078125
203.045	-0.69928	-0.00078064
204.045	-0.699402	-0.000777893
205.045	-0.699127	-0.000775146
206.045	-0.699127	-0.000772705
207.045	-0.699402	-0.000769348
208.045	-0.699432	-0.000766907
209.045	-0.699097	-0.000764465
210.045	-0.69928	-0.000761719
211.045	-0.699341	-0.000758972
212.045	-0.699432	-0.000755005
213.045	-0.699127	-0.000753479
214.045	-0.699371	-0.000751343
215.045	-0.699127	-0.000748596
216.045	-0.699188	-0.000746155
217.045	-0.699463	-0.000743713
218.045	-0.69931	-0.000740967
219.045	-0.699188	-0.000738525
220.045	-0.699341	-0.000735474
221.045	-0.69931	-0.000733643
222.045	-0.699402	-0.000731201
223.045	-0.699127	-0.00072876
224.045	-0.699158	-0.000726318
225.045	-0.699371	-0.000724182
226.045	-0.699402	-0.000721436
227.045	-0.699188	-0.000719299
228.045	-0.699341	-0.000716858
229.045	-0.699463	-0.000714722
230.045	-0.699493	-0.00071228
231.045	-0.699493	-0.000710144
232.045	-0.69931	-0.000707703
233.045	-0.69928	-0.000705566
234.045	-0.69931	-0.00070343
235.045	-0.699158	-0.000701294
236.045	-0.699158	-0.000698853
237.045	-0.699402	-0.000696716
238.045	-0.69931	-0.00069458
239.045	-0.699493	-0.000690308
240.045	-0.699371	-0.000689392
241.045	-0.699371	-0.000687866
242.045	-0.699219	-0.00068634
243.045	-0.699402	-0.000684814
244.045	-0.699158	-0.000682983
245.045	-0.69928	-0.000681152
246.045	-0.699188	-0.000679016
247.045	-0.699463	-0.000677185
248.045	-0.699219	-0.000675354
249.045	-0.699371	-0.000673523
250.045	-0.699371	-0.000671387
251.045	-0.699432	-0.00066864
252.045	-0.699219	-0.000667725
253.045	-0.69931	-0.000665894
254.045	-0.699432	-0.000663757
255.045	-0.699158	-0.000662537
256.045	-0.699219	-0.000660706
257.045	-0.699493	-0.000658569
258.045	-0.699341	-0.000657043
259.045	-0.699432	-0.000654907
260.045	-0.699402	-0.000653381
261.045	-0.699493	-0.000651855
262.045	-0.699402	-0.000648804
263.045	-0.699127	-0.000647888
264.045	-0.699493	-0.000646667
265.045	-0.699158	-0.000645447
266.045	-0.699402	-0.000643616
267.045	-0.699524	-0.00064209
268.045	-0.699432	-0.000640259
269.045	-0.699188	-0.000638733
270.045	-0.69931	-0.000637207
271.045	-0.699219	-0.000635681
272.045	-0.699402	-0.000634155
273.045	-0.699188	-0.000632629
274.045	-0.699188	-0.000629578
275.045	-0.699188	-0.000629578
276.045	-0.699341	-0.000628052
277.045	-0.699249	-0.000626526
278.045	-0.699249	-0.000624084
279.045	-0.699432	-0.000623779
280.045	-0.699463	-0.000622559
281.045	-0.699188	-0.000621338
282.045	-0.699432	-0.000619812
283.045	-0.699371	-0.000618896
284.045	-0.699493	-0.000617371
285.045	-0.699341	-0.00061615
286.045	-0.699371	-0.000614929
287.045	-0.699219	-0.000613403
288.045	-0.699432	-0.000612183
289.045	-0.699371	-0.000610657
290.045	-0.699402	-0.000609131
291.045	-0.699219	-0.000606079
292.045	-0.699493	-0.000604858
293.045	-0.699158	-0.000604858
294.045	-0.699432	-0.000603943
295.045	-0.699402	-0.000602722
296.045	-0.69928	-0.000601501
297.045	-0.699402	-0.000599976
298.045	-0.699493	-0.000598755
299.045	-0.699402	-0.000597534
300.045	-0.699493	-0.000596313
301.045	-0.699402	-0.000595093
302.045	-0.699341	-0.000593872
303.045	-0.699493	-0.000592651
304.045	-0.699402	-0.000591125
305.045	-0.699493	-0.000590515
306.045	-0.699219	-0.000589294
307.045	-0.699524	-0.000588074
308.045	-0.699249	-0.000586853
309.045	-0.699371	-0.000578308
310.045	-0.69931	-0.000579224
311.045	-0.699463	-0.000578918
312.045	-0.699493	-0.000579224
313.045	-0.699493	-0.000578613
314.045	-0.699554	-0.000578308
315.045	-0.699219	-0.000577393
316.045	-0.69928	-0.000576782
317.045	-0.699463	-0.000575867
318.045	-0.69928	-0.000574951
319.045	-0.699341	-0.000574341
320.045	-0.699463	-0.00057373
321.045	-0.699402	-0.000572815
322.045	-0.699188	-0.000571899
323.045	-0.699158	-0.000570984
324.045	-0.699432	-0.000569763
325.045	-0.699188	-0.000568848
326.045	-0.699402	-0.000567627
327.045	-0.699249	-0.000567017
328.045	-0.699249	-0.000565796
329.045	-0.699463	-0.000563354
330.045	-0.699493	-0.000563049
331.045	-0.699493	-0.000562439
332.045	-0.699432	-0.000561523
333.045	-0.699249	-0.000560913
334.045	-0.699463	-0.000559998
335.045	-0.69931	-0.000559082
336.045	-0.699188	-0.000558167
337.045	-0.699493	-0.000557556
338.045	-0.699432	-0.000556641
339.045	-0.699524	-0.00055542
340.045	-0.699432	-0.00055481
340.945	-0.699341	-0.000553894

File: OCP_1
Time (s)	WE(1).Potential (V)
9.56388	0.597229
10.5639	0.597229
11.5639	0.597229
12.5639	0.597229
13.5639	0.597534
14.5639	0.597534
15.5639	0.597534
16.5639	0.597534
17.5639	0.597229
18.5639	0.597229
19.5639	0.597229
20.5639	0.597229
21.5639	0.597229
22.5639	0.596924
23.5639	0.596619
24.5639	0.595398
25.5639	0.595398
26.5639	0.595093
27.5639	0.595093
28.5639	0.595093
29.5639	0.595093
30.5639	0.594788
31.5639	0.594788
32.5639	0.594482
33.5639	0.594482
34.5639	0.594482
35.5639	0.594482
36.5639	0.594177
37.5639	0.594177
38.5639	0.594177

File: OCP_3
Time (s)	WE(1).Potential (V)
341.956	-0.526428
343.956	-0.448792
345.956	-0.413727
347.956	-0.393616
349.956	-0.375641
351.956	-0.360077
353.956	-0.346497
355.956	-0.334503
357.956	-0.323792
359.956	-0.314117
361.956	-0.305389
363.956	-0.297516
365.956	-0.291016
367.956	-0.284729
369.956	-0.278473
371.956	-0.272705
373.956	-0.267517
375.956	-0.262726
377.956	-0.258301
379.956	-0.254242
381.956	-0.250366
383.956	-0.246674
385.956	-0.243073
387.956	-0.239655
389.956	-0.236328
391.956	-0.232971
393.956	-0.229584
395.956	-0.226105
397.956	-0.222412
399.956	-0.218597
401.956	-0.21463
403.956	-0.210693
405.956	-0.206635
407.956	-0.203308
409.956	-0.198639
411.956	-0.194122
413.956	-0.189575
415.956	-0.185211
417.956	-0.181
419.956	-0.176819
421.956	-0.172882
423.956	-0.168884
425.956	-0.164978
427.956	-0.161163
429.956	-0.15744
431.956	-0.153839
433.956	-0.150116
435.956	-0.146606
437.956	-0.143188
439.956	-0.139771
441.956	-0.136444
443.956	-0.133179
445.956	-0.129913
447.956	-0.126709
449.956	-0.123535
451.956	-0.120422
453.956	-0.117371
455.956	-0.114258
457.956	-0.111237
459.956	-0.108307
461.956	-0.105347
463.956	-0.102509
465.956	-0.0996704
467.956	-0.0968933
469.956	-0.0941162
471.956	-0.0914001
473.956	-0.0887451
475.956	-0.0861206
477.956	-0.0835571
479.956	-0.0809937
481.956	-0.0787964
483.956	-0.0761414
485.956	-0.0736694
487.956	-0.0713806
489.956	-0.0690308
491.956	-0.0667419
493.956	-0.0645142
495.956	-0.0623169
497.956	-0.0602112
499.956	-0.0581055
501.956	-0.0559998
503.956	-0.0539551
505.956	-0.0519409
507.956	-0.0499878
509.956	-0.0481049
511.956	-0.0463196
513.956	-0.0442688
515.956	-0.0423798
517.956	-0.0406067
519.956	-0.0388306
521.956	-0.0371002
523.956	-0.0356293
525.956	-0.0336639
527.956	-0.0319855
529.956	-0.030307
531.956	-0.0286835
533.956	-0.0271332
535.956	-0.0255249
537.956	-0.0240875
539.956	-0.0223602
541.956	-0.0208801
543.956	-0.0194122
545.956	-0.0179169
547.956	-0.0163574
549.956	-0.0148865
551.956	-0.0134613
553.956	-0.0121063
555.956	-0.010788
557.956	-0.00949402
559.956	-0.0081665
561.956	-0.0068634
563.956	-0.00561829
565.956	-0.00436401
567.956	-0.00315247
569.956	-0.00197144
571.956	-0.000817871
573.956	0.000216675
575.956	0.00139771
577.956	0.00247803
579.956	0.00348511
581.956	0.00446472
583.956	0.00553589
585.956	0.00647278
587.956	0.00740051
589.956	0.00823669
591.956	0.00917664
593.956	0.0100464
595.956	0.0108856
597.956	0.0116791
599.956	0.0124603
601.956	0.0132538
603.956	0.0139465
605.956	0.0147491
607.956	0.0155151
609.956	0.0162262
611.956	0.0169403
613.956	0.0176331
615.956	0.0183105
617.956	0.0189819
619.956	0.0196411
621.956	0.0203186
623.956	0.0209778
625.956	0.0216217
627.956	0.0222473
629.956	0.0227997
631.956	0.0235474
633.956	0.0243134
635.956	0.0250763
637.956	0.0257782
639.956	0.0264526
641.956	0.0271545
643.956	0.0278809
645.956	0.028595
647.956	0.0293091
649.956	0.0299866
651.956	0.030603
653.956	0.031601
655.956	0.0325989
657.956	0.0334991
659.956	0.0343292
661.956	0.0350861
663.956	0.0358978
665.956	0.0367218
667.956	0.0375244
669.956	0.0383636
671.956	0.0391876
673.956	0.0400085
675.956	0.0408508
677.956	0.0416992
679.956	0.0425415
681.956	0.0433929
683.956	0.0442657
685.956	0.0451385
687.956	0.0460724
689.956	0.046994
691.956	0.0479126
693.956	0.0488464
695.956	0.0497742
697.956	0.0507507
699.956	0.0515747
701.956	0.0522766
703.956	0.0530701
705.956	0.0540161
707.956	0.0549316
709.956	0.0558777
711.956	0.0568542
713.956	0.0578308
715.956	0.0587769
717.956	0.0597229
719.956	0.0606995
721.956	0.0616455
723.956	0.0625916
725.956	0.0636597
727.956	0.0647583
729.956	0.0657349
731.956	0.0667725
733.956	0.0678406
735.956	0.0690918
737.956	0.0700684
739.956	0.0710449
741.956	0.0719604
743.956	0.0729065
745.956	0.0738831
747.956	0.0749512
749.956	0.0759888
751.956	0.0770569
753.956	0.0780334
755.956	0.078949
757.956	0.0798035
759.956	0.080719
760.956	0.0811462