Folder: electrochromicfilms/Edgar/20230810 (1)/WO3_ITO_20230717_G

File: CA_2
Time (s)	WE(1).Potential (V)	WE(1).Current (A)
34.4131	-0.699371	-0.00398743
35.4131	-0.699646	-0.00389648
36.4131	-0.699249	-0.00391998
37.4131	-0.699585	-0.0038324
38.4131	-0.699463	-0.00373932
39.4131	-0.698975	-0.00364746
40.4131	-0.699554	-0.00355835
41.4131	-0.699402	-0.00347229
42.4131	-0.699432	-0.00338928
43.4131	-0.699585	-0.00330933
44.4131	-0.699524	-0.00323303
45.4131	-0.698975	-0.00315979
46.4131	-0.699188	-0.0030899
47.4131	-0.699646	-0.00302307
48.4131	-0.699493	-0.00295898
49.4131	-0.698975	-0.00289764
50.4131	-0.699127	-0.00283966
51.4131	-0.699249	-0.00278442
52.4131	-0.699646	-0.00273193
53.4131	-0.699249	-0.00268188
54.4131	-0.699432	-0.00263428
55.4131	-0.699463	-0.00258942
56.4131	-0.699066	-0.00254608
57.4131	-0.699127	-0.00250549
58.4131	-0.699097	-0.00246765
59.4131	-0.699066	-0.00243103
60.4131	-0.699097	-0.00239655
61.4131	-0.699036	-0.00236389
62.4131	-0.699097	-0.00233337
63.4131	-0.699554	-0.00230469
64.4131	-0.699127	-0.00227722
65.4131	-0.699524	-0.00225098
66.4131	-0.699188	-0.00222717
67.4131	-0.699585	-0.00220459
68.4131	-0.699127	-0.00218292
69.4131	-0.699554	-0.00216309
70.4131	-0.699097	-0.00214417
71.4131	-0.699554	-0.00212585
72.4131	-0.699127	-0.00210876
73.4131	-0.699554	-0.00209259
74.4131	-0.699036	-0.00207672
75.4131	-0.699677	-0.00206177
76.4131	-0.699127	-0.00204773
77.4131	-0.699371	-0.002034
78.4131	-0.699463	-0.00202057
79.4131	-0.699371	-0.00200806
80.4131	-0.699097	-0.00199524
81.4131	-0.699036	-0.00198303
82.4131	-0.699127	-0.00197083
83.4131	-0.699554	-0.00195923
84.4131	-0.699402	-0.00194794
85.4131	-0.699066	-0.00193634
86.4131	-0.699585	-0.00192505
87.4131	-0.699127	-0.00191406
88.4131	-0.699127	-0.00190338
89.4131	-0.699188	-0.0018927
90.4131	-0.699219	-0.00188202
91.4131	-0.699554	-0.00187164
92.4131	-0.699493	-0.00186096
93.4131	-0.699341	-0.00185028
94.4131	-0.699493	-0.0018396
95.4131	-0.699402	-0.00182953
96.4131	-0.699493	-0.00181946
97.4131	-0.699554	-0.00180939
98.4131	-0.699463	-0.00179932
99.4131	-0.699188	-0.00178925
100.413	-0.69931	-0.00177917
101.413	-0.699615	-0.00176941
102.413	-0.699524	-0.00175934
103.413	-0.69928	-0.00174927
104.413	-0.699615	-0.00174011
105.413	-0.699097	-0.00173035
106.413	-0.699524	-0.00172089
107.413	-0.699493	-0.00171143
108.413	-0.699066	-0.00170197
109.413	-0.699677	-0.0016925
110.413	-0.699463	-0.00168335
111.413	-0.699371	-0.00167297
112.413	-0.699371	-0.00166412
113.413	-0.699493	-0.00165436
114.413	-0.69931	-0.00164612
115.413	-0.699677	-0.00163757
116.413	-0.699646	-0.00162933
117.413	-0.699554	-0.00162079
118.413	-0.698975	-0.00161224
119.413	-0.699158	-0.0016037
120.413	-0.699646	-0.00159515
121.413	-0.699615	-0.00158661
122.413	-0.699615	-0.00157837
123.413	-0.699249	-0.00156982
124.413	-0.699188	-0.00156158
125.413	-0.699219	-0.00155304
126.413	-0.699646	-0.0015448
127.413	-0.699493	-0.00153656
128.413	-0.699615	-0.00152832
129.413	-0.699127	-0.00152039
130.413	-0.699127	-0.00151215
131.413	-0.699646	-0.00150421
132.413	-0.699707	-0.00149597
133.413	-0.699463	-0.00148834
134.413	-0.699707	-0.00148041
135.413	-0.699677	-0.00147278
136.413	-0.699127	-0.00146484
137.413	-0.699371	-0.00145721
138.413	-0.699585	-0.00144958
139.413	-0.699463	-0.00144165
140.413	-0.699677	-0.00143402
141.413	-0.699097	-0.0014267
142.413	-0.699249	-0.00141907
143.413	-0.699188	-0.00141174
144.413	-0.699158	-0.00140411
145.413	-0.699585	-0.00139679
146.413	-0.699493	-0.00138947
147.413	-0.699341	-0.00138214
148.413	-0.699249	-0.00137482
149.413	-0.699341	-0.00136749
150.413	-0.699432	-0.00136017
151.413	-0.699158	-0.00135315
152.413	-0.699188	-0.00134583
153.413	-0.699249	-0.00133881
154.413	-0.699707	-0.00133179
155.413	-0.69928	-0.00132446
156.413	-0.699524	-0.00131775
157.413	-0.699432	-0.00131042
158.413	-0.699463	-0.00130371
159.413	-0.699585	-0.001297
160.413	-0.699066	-0.00128998
161.413	-0.699432	-0.00128326
162.413	-0.699158	-0.00127655
163.413	-0.699371	-0.00126953
164.413	-0.699219	-0.00126282
165.413	-0.699188	-0.0012561
166.413	-0.699585	-0.00124969
167.413	-0.699677	-0.00124298
168.413	-0.699646	-0.00123657
169.413	-0.699402	-0.00123016
170.413	-0.699646	-0.00122375
171.413	-0.699646	-0.00121704
172.413	-0.699249	-0.00121063
173.413	-0.699158	-0.00120422
174.413	-0.699707	-0.00119781
175.413	-0.699493	-0.00119171
176.413	-0.699158	-0.0011853
177.413	-0.699371	-0.0011792
178.413	-0.699371	-0.00117279
179.413	-0.699127	-0.00116669
180.413	-0.699493	-0.00116058
181.413	-0.699432	-0.00115479
182.413	-0.699615	-0.00114868
183.413	-0.699615	-0.00114258
184.413	-0.699493	-0.00113678
185.413	-0.699615	-0.00113098
186.413	-0.699188	-0.00112518
187.413	-0.69931	-0.00111908
188.413	-0.69928	-0.00111359
189.413	-0.699249	-0.00110779
190.413	-0.699036	-0.00110199
191.413	-0.699524	-0.0010965
192.413	-0.69931	-0.0010907
193.413	-0.69928	-0.00108521
194.413	-0.699219	-0.00107971
195.413	-0.699615	-0.00107391
196.413	-0.699615	-0.00106812
197.413	-0.699188	-0.00106293
198.413	-0.699402	-0.00105743
199.413	-0.699127	-0.00105194
200.413	-0.699432	-0.00104675
201.413	-0.699249	-0.00103943
202.413	-0.699615	-0.00103577
203.413	-0.699585	-0.00103088
204.413	-0.699188	-0.0010257
205.413	-0.699524	-0.00102081
206.413	-0.699066	-0.00101593
207.413	-0.699615	-0.00101105
208.413	-0.699066	-0.00100586
209.413	-0.699371	-0.00100098
210.413	-0.699554	-0.000997009
211.413	-0.699493	-0.000992126
212.413	-0.699341	-0.000987244
213.413	-0.699097	-0.000982361
214.413	-0.698914	-0.000977478
215.413	-0.699036	-0.0009729
216.413	-0.69931	-0.000968018
217.413	-0.699036	-0.00096344
218.413	-0.698914	-0.000959167
219.413	-0.698944	-0.000954285
220.413	-0.699554	-0.000949707
221.413	-0.699554	-0.000945129
222.413	-0.699005	-0.000940857
223.413	-0.699371	-0.000936279
224.413	-0.699463	-0.000931702
225.413	-0.69931	-0.000927429
226.413	-0.699158	-0.000922852
227.413	-0.699402	-0.000918579
228.413	-0.698975	-0.000914001
229.413	-0.699066	-0.000910034
230.413	-0.699066	-0.000905762
231.413	-0.699036	-0.000901489
232.413	-0.699005	-0.000897522
233.413	-0.698975	-0.00089325
234.413	-0.69928	-0.000888977
235.413	-0.699524	-0.00088501
236.413	-0.699493	-0.000880737
237.413	-0.699585	-0.000877075
238.413	-0.699249	-0.000873108
239.413	-0.699463	-0.000869141
240.413	-0.699188	-0.000864868
241.413	-0.69931	-0.000861206
242.413	-0.699493	-0.000857239
243.413	-0.698944	-0.000853577
244.413	-0.699036	-0.000849915
245.413	-0.699585	-0.000846252
246.413	-0.699341	-0.00084259
247.413	-0.69931	-0.000838928
248.413	-0.699432	-0.000835266
249.413	-0.699341	-0.000831604
250.413	-0.699432	-0.000827942
251.413	-0.69931	-0.000824585
252.413	-0.698975	-0.000820923
253.413	-0.699249	-0.000817566
254.413	-0.69931	-0.000813904
255.413	-0.699554	-0.000810547
256.413	-0.699432	-0.00080719
257.413	-0.698975	-0.000803833
258.413	-0.698975	-0.000800476
259.413	-0.699158	-0.000797119
260.413	-0.699005	-0.000794067
261.413	-0.699341	-0.00079071
262.413	-0.699554	-0.000787659
263.413	-0.699585	-0.000784607
264.413	-0.699585	-0.00078125
265.413	-0.69931	-0.000778198
266.413	-0.699554	-0.000775146
267.413	-0.699066	-0.000772095
268.413	-0.699432	-0.000769043
269.413	-0.698914	-0.000765991
270.413	-0.698944	-0.000762939
271.413	-0.699585	-0.000760193
272.413	-0.699493	-0.000757141
273.413	-0.699005	-0.000754089
274.413	-0.699554	-0.000751343
275.413	-0.699066	-0.000748291
276.413	-0.699371	-0.000745544
277.413	-0.698883	-0.000742798
278.413	-0.699493	-0.000740051
279.413	-0.699615	-0.000737305
280.413	-0.699432	-0.000734558
281.413	-0.699615	-0.000732117
282.413	-0.69931	-0.00072937
283.413	-0.699554	-0.000726624
284.413	-0.699097	-0.000724182
285.413	-0.699249	-0.00072113
286.413	-0.698944	-0.000718994
287.413	-0.699188	-0.000716553
288.413	-0.699554	-0.000713806
289.413	-0.699493	-0.000711365
290.413	-0.699615	-0.000708923
291.413	-0.699005	-0.000706482
292.413	-0.699432	-0.000704041
293.413	-0.699219	-0.000701599
294.413	-0.699036	-0.000699158
295.413	-0.699585	-0.000696716
296.413	-0.699341	-0.000694275
297.413	-0.699402	-0.000692139
298.413	-0.699432	-0.000689697
299.413	-0.699585	-0.000687256
300.413	-0.699371	-0.000684814
301.413	-0.699585	-0.000682678
302.413	-0.699066	-0.000680542
303.413	-0.699249	-0.000678101
304.413	-0.699615	-0.000675964
305.413	-0.699463	-0.000673828
306.413	-0.699341	-0.000671692
307.413	-0.699249	-0.000669556
308.413	-0.699127	-0.000667419
309.413	-0.698944	-0.000665283
310.413	-0.699066	-0.000663147
311.413	-0.698883	-0.000661316
312.413	-0.699158	-0.000659485
313.413	-0.699005	-0.000657349
314.413	-0.699646	-0.000655518
315.413	-0.699036	-0.000653381
316.413	-0.699097	-0.00065155
317.413	-0.699005	-0.000649719
318.413	-0.698944	-0.000647888
319.413	-0.699036	-0.000645752
320.413	-0.699066	-0.000643616
321.413	-0.699341	-0.00064209
322.413	-0.698944	-0.000640259
323.413	-0.699524	-0.000638428
324.413	-0.698944	-0.000636597
325.413	-0.699036	-0.000634766
326.413	-0.699066	-0.000632935
327.413	-0.698975	-0.000631104
328.413	-0.699036	-0.000629578
329.413	-0.699066	-0.000627747
330.413	-0.698975	-0.000625916
331.413	-0.699005	-0.00062439
332.413	-0.699005	-0.000622253
333.413	-0.699188	-0.000620728
334.313	-0.699524	-0.000619202

File: OCP_1
Time (s)	WE(1).Potential (V)
3.14623	0.501099
4.14623	0.502625
5.14623	0.50415
6.14623	0.505371
7.14623	0.506897
8.14623	0.508118
9.14623	0.509338
10.1462	0.510559
11.1462	0.51178
12.1462	0.513
13.1462	0.514221
14.1462	0.515442
15.1462	0.516663
16.1462	0.517883
17.1462	0.519104
18.1462	0.52002
19.1462	0.52063
20.1462	0.521851
21.1462	0.522766
22.1462	0.523682
23.1462	0.524597
24.1462	0.525208
25.1462	0.526123
26.1462	0.527344
27.1462	0.528259
28.1462	0.529175
29.1462	0.529785
30.1462	0.530701
31.1462	0.531616
32.1462	0.532532

File: OCP_3
Time (s)	WE(1).Potential (V)
335.324	-0.583191
337.324	-0.531311
339.324	-0.499023
341.324	-0.473206
343.324	-0.450714
345.324	-0.431702
347.324	-0.416382
349.324	-0.403473
351.324	-0.391968
353.324	-0.381592
355.324	-0.37207
357.324	-0.36322
359.324	-0.355011
361.324	-0.34726
363.324	-0.339874
365.324	-0.332733
367.324	-0.325867
369.324	-0.319183
371.324	-0.312714
373.324	-0.306458
375.324	-0.300354
377.324	-0.294403
379.324	-0.288605
381.324	-0.282959
383.324	-0.277466
385.324	-0.272156
387.324	-0.266998
389.324	-0.262054
391.324	-0.257172
393.324	-0.252502
395.324	-0.247955
397.324	-0.243561
399.324	-0.239319
401.324	-0.235107
403.324	-0.231049
405.324	-0.227081
407.324	-0.223206
409.324	-0.219421
411.324	-0.215698
413.324	-0.211975
415.324	-0.208282
417.324	-0.20462
419.324	-0.200958
421.324	-0.197174
423.324	-0.193329
425.324	-0.189453
427.324	-0.185455
429.324	-0.181274
431.324	-0.17691
433.324	-0.172394
435.324	-0.167694
437.324	-0.162781
439.324	-0.157623
441.324	-0.152252
443.324	-0.146698
445.324	-0.1409
447.324	-0.134888
449.324	-0.128601
451.324	-0.122101
453.324	-0.115417
455.324	-0.108551
457.324	-0.1015625
459.324	-0.0945435
461.324	-0.0875854
463.324	-0.080658
465.324	-0.0738831
467.324	-0.0672607
469.324	-0.0608215
471.324	-0.0545959
473.324	-0.0485779
475.324	-0.0427887
477.324	-0.037207
479.324	-0.0317749
481.324	-0.0264496
483.324	-0.0212341
485.324	-0.0161469
487.324	-0.0112152
489.324	-0.00645447
491.324	-0.0019104
493.324	0.00236511
495.324	0.00635071
497.324	0.010022
499.324	0.013382
501.324	0.0164276
503.324	0.0191833
505.324	0.0216492
507.324	0.0238922
509.324	0.0258698
511.324	0.0276276
513.324	0.0292023
515.324	0.0306244
517.324	0.0318878
519.324	0.0330627
521.324	0.0341553
523.324	0.0351746
525.324	0.0361389
527.324	0.0371033
529.324	0.0380798
531.324	0.0390869
533.324	0.0401489
535.324	0.0412537
537.324	0.0424164
539.324	0.0436951
541.324	0.0450195
543.324	0.046463
545.324	0.0480194
547.324	0.0496826
549.324	0.0514221
551.324	0.0532227
553.324	0.0550842
555.324	0.0570374
557.324	0.059082
559.324	0.0611572
561.324	0.063324
563.324	0.0655212
565.324	0.0677795
567.324	0.0700684
569.324	0.0723572
571.324	0.0746765
573.324	0.0770264
575.324	0.0793762
577.324	0.0816956
579.324	0.0840454
581.324	0.0863342
583.324	0.088623
585.324	0.0909119
587.324	0.0931396
589.324	0.0953369
591.324	0.0975037
593.324	0.0996399
595.324	0.101715
597.324	0.10376
599.324	0.105743
601.324	0.107697
603.324	0.109589
605.324	0.11145
607.324	0.11322
609.324	0.11499
611.324	0.116699
613.324	0.118317
615.324	0.119934
617.324	0.12146
619.324	0.122955
621.324	0.12442
623.324	0.125763
625.324	0.127136
627.324	0.128479
629.324	0.129761
631.324	0.130798
633.324	0.132202
635.324	0.133392
637.324	0.134552
639.324	0.135681
641.324	0.136719
643.324	0.137726
645.324	0.138733
647.324	0.139679
649.324	0.140625
651.324	0.141541
653.324	0.142395
655.324	0.14328
657.324	0.144135
659.324	0.144928
661.324	0.145691
663.324	0.146454
665.324	0.147217
667.324	0.147949
669.324	0.148651
671.324	0.149323
673.324	0.149963
675.324	0.150574
677.324	0.151215
679.324	0.151733
681.324	0.152435
683.324	0.152985
685.324	0.153534
687.324	0.154114
689.324	0.154663
691.324	0.155182
693.324	0.155701
695.324	0.155975
697.324	0.156494
699.324	0.156982
701.324	0.157501
703.324	0.15799
705.324	0.158508
707.324	0.159027
709.324	0.159485
711.324	0.159973
713.324	0.160461
715.324	0.160919
717.324	0.161346
719.324	0.161743
721.324	0.16214
723.324	0.162537
725.324	0.162872
727.324	0.163208
729.324	0.163513
731.324	0.163818
733.324	0.164154
735.324	0.164429
737.324	0.164703
739.324	0.164978
741.324	0.165253
743.324	0.165527
745.324	0.165833
747.324	0.166107
749.324	0.166382
751.324	0.166656
753.324	0.166931
754.324	0.167053