Folder: electrochromicfilms/Edgar/20210811 (1)/pruebas

Note: Edgar/20210811 (1)/pruebas/fra_test1_EIS_data_2_b.txt
"Z60W Data File: Version 1.1"
""
""
""
""
""
""
""
0,2,0,1,0,1,1000
5
"  Freq (Hz)    Ampl     Bias   Time(Sec)   Z'(a)    Z''(b)    GD   Err   Range"
1000,0,0,0,127.270681929071,-159.768474294261,0,0,0
100,0,0,0,826.629207084884,-439.733535804843,0,0,0
10,0,0,0,1087.84761757985,-60.0607621650922,0,0,0
1,0,0,0,1091.73860457292,-5.89719967993558,0,0,0
0.1,0,0,0,1092.25501860235,-0.623104777566429,0,0,0

File: cv_data_procedure_test.txt
Potential applied (V)	WE(1).Current (A)	Time (s)
0.00244141	9.487e-07	12.6171
0.0170898	1.57257e-05	12.7635
0.0317383	2.91504e-05	12.9099
0.0463867	4.25781e-05	13.0563
0.0610352	5.59998e-05	13.2027
0.0756836	6.9458e-05	13.3491
0.090332	8.28857e-05	13.4955
0.10498	9.63135e-05	13.6419
0.119629	0.000109711	13.7883
0.134277	0.000123169	13.9347
0.148926	0.000136566	14.0811
0.163574	0.000149994	14.2275
0.178223	0.000163422	14.3739
0.192871	0.000176849	14.5203
0.20752	0.000190277	14.6667
0.222168	0.000203705	14.8131
0.236816	0.000217133	14.9595
0.251465	0.00023056	15.1059
0.266113	0.000243988	15.2523
0.280762	0.000257385	15.3987
0.29541	0.000270844	15.5451
0.310059	0.000284241	15.6915
0.324707	0.000297699	15.8379
0.339355	0.000311279	15.9843
0.354004	0.000324677	16.1307
0.368652	0.000338135	16.2771
0.383301	0.0003515625	16.4235
0.397949	0.00036499	16.5699
0.412598	0.000378418	16.7163
0.427246	0.000391846	16.8627
0.441895	0.000405273	17.0091
0.456543	0.000418701	17.1555
0.471191	0.000432129	17.3019
0.48584	0.000445557	17.4483
0.500488	0.000459015	17.5947
0.515137	0.000472412	17.7411
0.529785	0.00048584	17.8875
0.544434	0.000499298	18.0339
0.559082	0.000513	18.1803
0.57373	0.000526123	18.3267
0.588379	0.000539551	18.4731
0.603027	0.000552979	18.6195
0.617676	0.000566406	18.7659
0.632324	0.000579834	18.9123
0.646973	0.000593567	19.0587
0.661621	0.000606995	19.2051
0.67627	0.000620422	19.3515
0.690918	0.000633545	19.4979
0.705566	0.000647278	19.6443
0.720215	0.000660706	19.7907
0.734863	0.000674133	19.9371
0.749512	0.000687561	20.0835
0.76416	0.000700989	20.2299
0.778809	0.000714417	20.3763
0.793457	0.000727844	20.5227
0.808105	0.000741272	20.6691
0.822754	0.0007547	20.8155
0.837402	0.000768127	20.9619
0.852051	0.000781555	21.1083
0.866699	0.000794983	21.2547
0.881348	0.000808411	21.4011
0.895996	0.000821838	21.5475
0.910645	0.000835266	21.6939
0.925293	0.000848694	21.8403
0.939941	0.000862122	21.9867
0.95459	0.000875549	22.1331
0.969238	0.000888977	22.2795
0.983887	0.000902405	22.4259
0.998535	0.000916138	22.5723
0.98877	0.000906982	22.7187
0.974121	0.000893555	22.8651
0.959473	0.000880127	23.0115
0.944824	0.000866699	23.1579
0.930176	0.000853271	23.3043
0.915527	0.000839844	23.4507
0.900879	0.000826416	23.5971
0.88623	0.000812988	23.7435
0.871582	0.000799561	23.8899
0.856934	0.000786133	24.0363
0.842285	0.000772705	24.1827
0.827637	0.000758972	24.3291
0.812988	0.00074585	24.4755
0.79834	0.000732117	24.6219
0.783691	0.000718689	24.7683
0.769043	0.000705261	24.9147
0.754395	0.000691833	25.0611
0.739746	0.000678711	25.2075
0.725098	0.000664978	25.3539
0.710449	0.00065155	25.5003
0.695801	0.000638123	25.6467
0.681152	0.000624695	25.7931
0.666504	0.000611267	25.9395
0.651855	0.000597839	26.0859
0.637207	0.000584412	26.2323
0.622559	0.000570984	26.3787
0.60791	0.000557556	26.5251
0.593262	0.000544128	26.6715
0.578613	0.000530701	26.8179
0.563965	0.000517273	26.9643
0.549316	0.000503845	27.1107
0.534668	0.000490326	27.2571
0.52002	0.000476898	27.4035
0.505371	0.00046347	27.5499
0.490723	0.000450012	27.6963
0.476074	0.000436584	27.8427
0.461426	0.000423157	27.9891
0.446777	0.000409729	28.1355
0.432129	0.000396301	28.2819
0.41748	0.000382874	28.4283
0.402832	0.000369446	28.5747
0.388184	0.000356018	28.7211
0.373535	0.00034259	28.8675
0.358887	0.000329163	29.0139
0.344238	0.000315735	29.1603
0.32959	0.000302307	29.3067
0.314941	0.000288849	29.4531
0.300293	0.000275391	29.5995
0.285645	0.000261963	29.7459
0.270996	0.000248535	29.8923
0.256348	0.000235107	30.0387
0.241699	0.00022168	30.1851
0.227051	0.000208252	30.3315
0.212402	0.000194824	30.4779
0.197754	0.000181366	30.6243
0.183105	0.000167938	30.7707
0.168457	0.00015451	30.9171
0.153809	0.000141083	31.0635
0.13916	0.000127655	31.2099
0.124512	0.000114227	31.3563
0.109863	0.0001008	31.5027
0.0952148	8.73413e-05	31.6491
0.0805664	7.39136e-05	31.7955
0.065918	6.04858e-05	31.9419
0.0512695	4.7052e-05	32.0883
0.0366211	3.36426e-05	32.2347
0.0219727	2.02118e-05	32.3811
0.00732422	6.78406e-06	32.5275
-0.00732422	-6.64978e-06	32.6739
-0.0219727	-2.00775e-05	32.8203
-0.0366211	-3.35114e-05	32.9667
-0.0512695	-4.69299e-05	33.1131
-0.065918	-6.03638e-05	33.2595
-0.0805664	-7.3822e-05	33.4059
-0.0952148	-8.72498e-05	33.5523
-0.109863	-0.000100677	33.6987
-0.124512	-0.000114105	33.8451
-0.13916	-0.000127533	33.9915
-0.153809	-0.000140961	34.1379
-0.168457	-0.000154388	34.2843
-0.183105	-0.000167816	34.4307
-0.197754	-0.000181244	34.5771
-0.212402	-0.000194672	34.7235
-0.227051	-0.00020813	34.8699
-0.241699	-0.000221558	35.0163
-0.256348	-0.000234985	35.1627
-0.270996	-0.000248413	35.3091
-0.285645	-0.000261841	35.4555
-0.300293	-0.000275269	35.6019
-0.314941	-0.000288727	35.7483
-0.32959	-0.000302185	35.8947
-0.344238	-0.000315735	36.0411
-0.358887	-0.000329163	36.1875
-0.373535	-0.00034259	36.3339
-0.388184	-0.000356049	36.4803
-0.402832	-0.000369476	36.6267
-0.41748	-0.000382904	36.7731
-0.432129	-0.000396332	36.9195
-0.446777	-0.00040976	37.0659
-0.461426	-0.000423218	37.2123
-0.476074	-0.000436646	37.3587
-0.490723	-0.000450104	37.5051
-0.505371	-0.000463531	37.6515
-0.52002	-0.000476959	37.7979
-0.534668	-0.000490417	37.9443
-0.549316	-0.00050415	38.0907
-0.563965	-0.000517578	38.2371
-0.578613	-0.000531006	38.3835
-0.593262	-0.000544434	38.5299
-0.60791	-0.000557861	38.6763
-0.622559	-0.000571289	38.8227
-0.637207	-0.000584717	38.9691
-0.651855	-0.000598145	39.1155
-0.666504	-0.000611572	39.2619
-0.681152	-0.000625	39.4083
-0.695801	-0.000638428	39.5547
-0.710449	-0.000651855	39.7011
-0.725098	-0.000665283	39.8475
-0.739746	-0.000678711	39.9939
-0.754395	-0.000692139	40.1403
-0.769043	-0.000705566	40.2867
-0.783691	-0.000718994	40.4331
-0.79834	-0.000732422	40.5795
-0.812988	-0.00074585	40.7259
-0.827637	-0.000759277	40.8723
-0.842285	-0.000772705	41.0187
-0.856934	-0.000786133	41.1651
-0.871582	-0.000799561	41.3115
-0.88623	-0.000812988	41.4579
-0.900879	-0.000826416	41.6043
-0.915527	-0.000839844	41.7507
-0.930176	-0.000853271	41.8971
-0.944824	-0.000866699	42.0435
-0.959473	-0.000880127	42.1899
-0.974121	-0.000893555	42.3363
-0.98877	-0.000906982	42.4827
-0.998535	-0.000916138	42.6291
-0.983887	-0.00090271	42.7755
-0.969238	-0.000889282	42.9219
-0.95459	-0.000875549	43.0683
-0.939941	-0.000862427	43.2147
-0.925293	-0.000848999	43.3611
-0.910645	-0.000835571	43.5075
-0.895996	-0.000822144	43.6539
-0.881348	-0.000808411	43.8003
-0.866699	-0.000794983	43.9467
-0.852051	-0.000781555	44.0931
-0.837402	-0.000768127	44.2395
-0.822754	-0.0007547	44.3859
-0.808105	-0.000741272	44.5323
-0.793457	-0.000727844	44.6787
-0.778809	-0.000714417	44.8251
-0.76416	-0.000700989	44.9715
-0.749512	-0.000687561	45.1179
-0.734863	-0.000674133	45.2643
-0.720215	-0.000660706	45.4107
-0.705566	-0.000647278	45.5571
-0.690918	-0.00063385	45.7035
-0.67627	-0.000620422	45.8499
-0.661621	-0.000606995	45.9963
-0.646973	-0.000593567	46.1427
-0.632324	-0.000580139	46.2891
-0.617676	-0.000566711	46.4355
-0.603027	-0.000553284	46.5819
-0.588379	-0.000539856	46.7283
-0.57373	-0.000526428	46.8747
-0.559082	-0.000513	47.0211
-0.544434	-0.000499359	47.1675
-0.529785	-0.000485931	47.3139
-0.515137	-0.000472504	47.4603
-0.500488	-0.000459076	47.6067
-0.48584	-0.000445618	47.7531
-0.471191	-0.00043219	47.8995
-0.456543	-0.000418762	48.0459
-0.441895	-0.000405304	48.1923
-0.427246	-0.000391876	48.3387
-0.412598	-0.000378448	48.4851
-0.397949	-0.000365021	48.6315
-0.383301	-0.0003515625	48.7779
-0.368652	-0.000338104	48.9243
-0.354004	-0.000324677	49.0707
-0.339355	-0.000311249	49.2171
-0.324707	-0.000297821	49.3635
-0.310059	-0.000284363	49.5099
-0.29541	-0.000270905	49.6563
-0.280762	-0.000257477	49.8027
-0.266113	-0.000244049	49.9491
-0.251465	-0.000230621	50.0955
-0.236816	-0.000217194	50.2419
-0.222168	-0.000203735	50.3883
-0.20752	-0.000190277	50.5347
-0.192871	-0.00017688	50.6811
-0.178223	-0.000163422	50.8275
-0.163574	-0.000149994	50.9739
-0.148926	-0.000136566	51.1203
-0.134277	-0.000123138	51.2667
-0.119629	-0.000109711	51.4131
-0.10498	-9.62524e-05	51.5595
-0.090332	-8.27637e-05	51.7059
-0.0756836	-6.93359e-05	51.8523
-0.0610352	-5.59082e-05	51.9987
-0.0463867	-4.24438e-05	52.1451
-0.0317383	-2.90314e-05	52.2915
-0.0170898	-1.55945e-05	52.4379
-0.00244141	-2.18048e-06	52.5843
0	6.92749e-08	52.6087

File: FRA_1.txt
Index;Frequency (Hz);Z' (Ω);-Z'' (Ω);Z (Ω);-Phase (°);Time (s)
1;100000;100,292088367286;2,24260032835514;100,317158279649;1,28095971663672;21,2675949463045
2;27826;100,310918943113;6,09501734027642;100,495918800666;3,47708862661767;23,6156359403763
3;7742,6;100,417543839017;21,2035573558322;102,631739511727;11,9230862756768;25,7186739350666
4;2154,4;100,61376249795;75,5572237374413;125,825368121471;36,9051977972654;27,7817149298579
5;599,48;101,295307884467;270,709951067957;289,040856985003;69,4849595549352;31,4827859205136
6;166,81;103,224482123956;971,91316037381;977,379396661074;83,9374845703573;35,0238479115733
7;46,416;117,146655436521;3483,9809547634;3485,94988948982;88,0741912157076;38,6999169022921
8;12,915;268,34502797874;12510,7479766144;12513,6255333298;88,77124210402;41,647970894849
9;3,5938;2156,40302919909;44848,0965750838;44899,9091361261;87,2472029076512;51,785161869255
10;1;25587,2045875267;157282,180604877;159349,896060302;80,7598746836092;61,5513398445978

File: fra_test1_EIS_data.txt
"Z60W Data File: Version 1.1"
""
""
""
""
""
""
""
0,2,0,1,1,100000
50
"  Freq (Hz)    Ampl     Bias   Time(Sec)   Z'(a)    Z''(b)    GD   Err   Range"
100000,0,0,0,100.169,-2.22343,0,0,0
79060,0,0,0,100.161,-2.54855,0,0,0
62506,0,0,0,100.138,-3.0204,0,0,0
49417,0,0,0,100.148,-3.65681,0,0,0
39069,0,0,0,100.164,-4.49571,0,0,0
30888,0,0,0,100.171,-5.57655,0,0,0
24421,0,0,0,100.199,-6.96055,0,0,0
19307,0,0,0,100.236,-8.72716,0,0,0
15264,0,0,0,100.293,-10.9658,0,0,0
12068,0,0,0,100.408,-13.8132,0,0,0
9541,0,0,0,100.548,-17.4144,0,0,0
7543.1,0,0,0,100.764,-21.9664,0,0,0
5963.6,0,0,0,101.063,-27.7163,0,0,0
4714.9,0,0,0,101.581,-34.9932,0,0,0
3727.6,0,0,0,102.365,-44.1693,0,0,0
2947.1,0,0,0,103.592,-55.7388,0,0,0
2330,0,0,0,105.478,-70.2712,0,0,0
1842.1,0,0,0,108.531,-88.5588,0,0,0
1456.3,0,0,0,113.265,-111.35,0,0,0
1151.4,0,0,0,120.854,-139.711,0,0,0
910.3,0,0,0,132.563,-174.467,0,0,0
719.69,0,0,0,150.725,-216.461,0,0,0
568.99,0,0,0,178.232,-265.562,0,0,0
449.84,0,0,0,219.108,-320.886,0,0,0
355.65,0,0,0,277.009,-378.372,0,0,0
281.18,0,0,0,355.34,-432.426,0,0,0
222.3,0,0,0,453.194,-473.714,0,0,0
175.75,0,0,0,565.574,-493.911,0,0,0
138.95,0,0,0,680.343,-487.596,0,0,0
109.85,0,0,0,787.192,-456.637,0,0,0
86.851,0,0,0,876.23,-408.023,0,0,0
68.665,0,0,0,945.013,-351.343,0,0,0
54.287,0,0,0,994.613,-294.182,0,0,0
42.919,0,0,0,1028.5,-241.438,0,0,0
33.932,0,0,0,1051.63,-195.648,0,0,0
26.827,0,0,0,1066.23,-157.107,0,0,0
21.21,0,0,0,1075.53,-125.413,0,0,0
16.768,0,0,0,1081.46,-99.8403,0,0,0
13.257,0,0,0,1085.47,-79.2128,0,0,0
10.481,0,0,0,1087.47,-62.8375,0,0,0
8.2864,0,0,0,1088.92,-49.736,0,0,0
6.5513,0,0,0,1090.23,-39.3723,0,0,0
5.1795,0,0,0,1090.52,-31.0898,0,0,0
4.0949,0,0,0,1091.21,-24.5844,0,0,0
3.2375,0,0,0,1091.68,-19.4857,0,0,0
2.5595,0,0,0,1091.48,-15.4914,0,0,0
2.0236,0,0,0,1091.66,-12.1715,0,0,0
1.5999,0,0,0,1091.34,-9.55568,0,0,0
1.2649,0,0,0,1091.43,-7.6233,0,0,0
1,0,0,0,1091.98,-6.10743,0,0,0

File: fra_test1_EIS_data_1.txt
"Z60W Data File: Version 1.1"
""
""
""
""
""
""
""
0,2,0,1,0,1,100000
61
"  Freq (Hz)    Ampl     Bias   Time(Sec)   Z'(a)    Z''(b)    GD   Err   Range"
100000,0,0,0,100.166,-2.35015,0,0,0
79433,0,0,0,100.187,-2.63772,0,0,0
63096,0,0,0,100.141,-3.07587,0,0,0
50119,0,0,0,100.111,-3.67165,0,0,0
39811,0,0,0,100.17,-4.46615,0,0,0
31623,0,0,0,100.178,-5.49532,0,0,0
25119,0,0,0,100.213,-6.81177,0,0,0
19953,0,0,0,100.262,-8.4796,0,0,0
15849,0,0,0,100.314,-10.5879,0,0,0
12589,0,0,0,100.401,-13.2701,0,0,0
10000,0,0,0,100.57,-16.6435,0,0,0
7943.3,0,0,0,100.691,-20.8719,0,0,0
6309.6,0,0,0,100.968,-26.2161,0,0,0
5011.9,0,0,0,101.462,-32.9518,0,0,0
3981.1,0,0,0,102.082,-41.3774,0,0,0
3162.3,0,0,0,103.152,-51.9865,0,0,0
2511.9,0,0,0,104.904,-65.2472,0,0,0
1995.3,0,0,0,107.423,-81.8573,0,0,0
1584.9,0,0,0,111.374,-102.548,0,0,0
1258.9,0,0,0,117.615,-128.25,0,0,0
1000,0,0,0,127.31,-159.82,0,0,0
794.33,0,0,0,142.163,-197.916,0,0,0
630.96,0,0,0,164.711,-243.046,0,0,0
501.19,0,0,0,198.416,-294.886,0,0,0
398.11,0,0,0,246.798,-350.754,0,0,0
316.23,0,0,0,313.713,-406.519,0,0,0
251.19,0,0,0,400.274,-454.791,0,0,0
199.53,0,0,0,503.557,-485.988,0,0,0
158.49,0,0,0,616.426,-494.612,0,0,0
125.89,0,0,0,726.928,-477.234,0,0,0
100,0,0,0,826.246,-439.529,0,0,0
79.433,0,0,0,904.034,-386.764,0,0,0
63.096,0,0,0,964.562,-330.454,0,0,0
50.119,0,0,0,1007.73,-275.458,0,0,0
39.811,0,0,0,1037.24,-225.997,0,0,0
31.623,0,0,0,1057.15,-183.355,0,0,0
25.119,0,0,0,1069.79,-147.464,0,0,0
19.953,0,0,0,1077,-118.469,0,0,0
15.849,0,0,0,1082.12,-94.4782,0,0,0
12.589,0,0,0,1085.82,-75.3658,0,0,0
10,0,0,0,1088.07,-59.9211,0,0,0
7.9433,0,0,0,1089.39,-47.7898,0,0,0
6.3096,0,0,0,1090.25,-38.2648,0,0,0
5.0119,0,0,0,1089.99,-30.2389,0,0,0
3.9811,0,0,0,1091.2,-23.9358,0,0,0
3.1623,0,0,0,1091.3,-18.896,0,0,0
2.5119,0,0,0,1091.65,-14.9961,0,0,0
1.9953,0,0,0,1091.48,-12.0903,0,0,0
1.5849,0,0,0,1091.54,-9.58949,0,0,0
1.2589,0,0,0,1091.46,-7.62952,0,0,0
1,0,0,0,1091.55,-5.96565,0,0,0
0.79433,0,0,0,1092.23,-5.17339,0,0,0
0.63096,0,0,0,1092.31,-3.82313,0,0,0
0.50119,0,0,0,1091.94,-3.01238,0,0,0
0.39811,0,0,0,1092.8,-2.45069,0,0,0
0.31623,0,0,0,1092.33,-1.86775,0,0,0
0.25119,0,0,0,1091.69,-1.564,0,0,0
0.19953,0,0,0,1092.07,-1.29315,0,0,0
0.15849,0,0,0,1092.24,-0.934512,0,0,0
0.12589,0,0,0,1091.99,-0.742511,0,0,0
0.1,0,0,0,1092.08,-0.493669,0,0,0

File: fra_test1_EIS_data_1_b.txt
"Z60W Data File: Version 1.1"
""
""
""
""
""
""
""
0,2,0,1,0,1,100000
7
"  Freq (Hz)    Ampl     Bias   Time(Sec)   Z'(a)    Z''(b)    GD   Err   Range"
100000,0,0,0,100.179,-2.39101,0,0,0
10000,0,0,0,100.515,-16.6412,0,0,0
1000,0,0,0,127.318,-159.818,0,0,0
100,0,0,0,826.01,-439.525,0,0,0
10,0,0,0,1087.68,-59.5418,0,0,0
1,0,0,0,1092.3,-6.42829,0,0,0
0.1,0,0,0,1092.27,-0.666865,0,0,0

File: fra_test1_EIS_data_2.txt
"Z60W Data File: Version 1.1"
""
""
""
""
""
""
""
0,2,0,1,0,1,1000
41
"  Freq (Hz)    Ampl     Bias   Time(Sec)   Z'(a)    Z''(b)    GD   Err   Range"
1000,0,0,0,127.276,-159.762,0,0,0
794.33,0,0,0,142.17,-197.941,0,0,0
630.96,0,0,0,164.776,-243.14,0,0,0
501.19,0,0,0,198.362,-294.802,0,0,0
398.11,0,0,0,246.855,-350.792,0,0,0
316.23,0,0,0,313.624,-406.411,0,0,0
251.19,0,0,0,400.228,-454.388,0,0,0
199.53,0,0,0,503.712,-486.25,0,0,0
158.49,0,0,0,616.603,-494.843,0,0,0
125.89,0,0,0,727.216,-477.352,0,0,0
100,0,0,0,826.382,-439.627,0,0,0
79.433,0,0,0,904.364,-386.838,0,0,0
63.096,0,0,0,965.058,-330.529,0,0,0
50.119,0,0,0,1007.77,-275.575,0,0,0
39.811,0,0,0,1037.39,-226.114,0,0,0
31.623,0,0,0,1056.74,-183.152,0,0,0
25.119,0,0,0,1069.25,-147.279,0,0,0
19.953,0,0,0,1077.08,-118.097,0,0,0
15.849,0,0,0,1082.82,-94.365,0,0,0
12.589,0,0,0,1086.03,-75.2009,0,0,0
10,0,0,0,1088.25,-59.7905,0,0,0
7.9433,0,0,0,1089.54,-47.4351,0,0,0
6.3096,0,0,0,1090.87,-37.8781,0,0,0
5.0119,0,0,0,1090.57,-30.1281,0,0,0
3.9811,0,0,0,1091.78,-23.931,0,0,0
3.1623,0,0,0,1091.22,-19.2287,0,0,0
2.5119,0,0,0,1091.37,-15.2992,0,0,0
1.9953,0,0,0,1091.57,-11.9033,0,0,0
1.5849,0,0,0,1091.72,-9.41532,0,0,0
1.2589,0,0,0,1091.79,-7.54385,0,0,0
1,0,0,0,1091.44,-6.03738,0,0,0
0.79433,0,0,0,1091.84,-4.77478,0,0,0
0.63096,0,0,0,1092.23,-3.99662,0,0,0
0.50119,0,0,0,1092.26,-3.24216,0,0,0
0.39811,0,0,0,1092.49,-2.20024,0,0,0
0.31623,0,0,0,1091.84,-2.01714,0,0,0
0.25119,0,0,0,1092.64,-1.41266,0,0,0
0.19953,0,0,0,1092.18,-1.12944,0,0,0
0.15849,0,0,0,1092.06,-0.822411,0,0,0
0.12589,0,0,0,1091.82,-0.841771,0,0,0
0.1,0,0,0,1092.34,-0.60858,0,0,0