Folder: electrochromicfilms/Edgar/20240424/20240424/CV/sample-20240417_B

File: CV_2
Time (s)	Scan	WE(1).Potential (V)	WE(1).Current (A)	External(1).External 2 (V)	Q+	Q-
429.616	1	0.0943298	9.47845e-07	3.42194
439.625	1	-0.0905762	-7.21436e-05	3.36304
449.635	1	-0.289948	-0.00013736	3.08929
459.645	1	-0.48877	-0.000281433	2.56378
469.655	1	-0.313141	0.000117889	2.34314
479.664	1	-0.114685	0.00023407	2.85583
489.674	1	0.0845642	8.35266e-05	3.38287
499.684	2	0.284027	4.31244e-06	3.44086
509.694	2	0.483398	1.78894e-06	3.44116
519.703	2	0.682709	1.13007e-06	3.44055
529.713	2	0.881348	9.79614e-07	3.42072
539.723	2	0.906372	5.24597e-07	3.44055
549.733	2	0.707062	3.61023e-07	3.43933
559.742	2	0.507721	2.15454e-07	3.44055
569.752	2	0.30838	9.06372e-08	3.42163
579.762	2	0.108917	-1.36963e-05	3.44116
589.771	2	-0.0904236	-7.49817e-05	3.30414
599.781	2	-0.289886	-0.000138336	3.05176
609.791	2	-0.488739	-0.000281769	2.54364
619.801	2	-0.313171	0.00011853	2.30316
629.81	2	-0.114716	0.000235626	2.81616
639.82	2	0.0846252	8.45642e-05	3.36243
649.83	3	0.283997	4.36432e-06	3.4201
659.84	3	0.483398	1.70868e-06	3.4198
669.849	3	0.68277	1.06232e-06	3.42102
679.859	3	0.881653	8.48694e-07	3.42041
689.869	3	0.906372	5.21545e-07	3.42072
699.879	3	0.707153	3.14331e-07	3.40118
709.888	3	0.507721	1.6571e-07	3.42072
719.898	3	0.308319	6.2561e-08	3.4021
729.908	3	0.10907	-1.39801e-05	3.4024
739.918	3	-0.0906067	-7.55005e-05	3.3252
749.927	3	-0.289856	-0.000138794	3.03253
759.937	3	-0.488708	-0.000282104	2.54486
769.947	3	-0.313049	0.000118896	2.3056
779.957	3	-0.114777	0.000236298	2.81586
789.966	3	0.0846558	8.52051e-05	3.34412
799.976	4	0.283936	4.31976e-06	3.39539
809.986	4	0.483368	1.76483e-06	3.42285
819.995	4	0.68277	1.04584e-06	3.42102
830.005	4	0.882263	7.9071e-07	3.42102
840.015	4	0.906067	5.13916e-07	3.40179
850.025	4	0.707153	2.66724e-07	3.40179
860.034	4	0.507721	2.05383e-07	3.40302
870.044	4	0.308289	6.7749e-08	3.40179
880.054	4	0.108917	-1.42639e-05	3.38287
890.064	4	-0.0905151	-7.58362e-05	3.30383
900.073	4	-0.289917	-0.000138977	3.05206
910.083	4	-0.488861	-0.000282043	2.56348
920.093	4	-0.51239	-0.000101532	1.95435
930.103	4	-0.312561	0.000200562	1.95282
940.112	4	-0.113678	0.000301544	2.54395
950.122	4	0.0847778	0.00011792	3.26508
960.132	5	0.284058	4.9408e-06	3.36334
970.142	5	0.483459	1.91101e-06	3.38196
980.151	5	0.6828	1.2085e-06	3.36273
990.161	5	0.881653	8.37402e-07	3.36304
1000.17	5	0.906067	5.44739e-07	3.38165
1010.18	5	0.707092	3.30505e-07	3.38196
1020.19	5	0.50769	2.02332e-07	3.38196
1030.2	5	0.30835	2.47192e-08	3.38257
1040.21	5	0.108917	-1.45905e-05	3.38226
1050.22	5	-0.0905151	-7.61108e-05	3.28461
1060.23	5	-0.289917	-0.000139618	3.03253
1070.24	5	-0.488708	-0.000282471	2.51953
1080.25	5	-0.51239	-0.0001015625	1.93359
1090.26	5	-0.312531	0.000200073	1.93359
1100.27	5	-0.113617	0.000302216	2.49908
1110.28	5	0.0847473	0.000119751	3.2843
1120.29	6	0.284027	4.97131e-06	3.38226
1130.3	6	0.483459	1.96533e-06	3.38196
1140.31	6	0.682861	1.19293e-06	3.36365
1150.32	6	0.881653	8.49304e-07	3.38104
1160.33	6	0.906372	5.70068e-07	3.36243
1170.34	6	0.707092	2.90222e-07	3.36212
1180.35	6	0.507751	2.12708e-07	3.38135
1190.36	6	0.30838	7.92236e-08	3.36243
1200.37	6	0.108978	-1.48743e-05	3.38257
1210.38	6	-0.0904846	-7.64771e-05	3.26477
1220.39	6	-0.289886	-0.000139984	3.03162
1230.39	6	-0.488708	-0.000282684	2.50031
1240.4	6	-0.512329	-0.000101624	1.91437
1250.41	6	-0.312653	0.00019989	1.93359
1260.42	6	-0.113617	0.000302673	2.49969
1270.43	6	0.0847168	0.000120636	3.26538
1280.44	7	0.284027	5.08423e-06	3.36273
1290.45	7	0.483459	1.95679e-06	3.3429
1300.46	7	0.682892	1.19019e-06	3.34259
1310.47	7	0.881653	8.35571e-07	3.34259
1320.48	7	0.906372	5.24902e-07	3.36243
1330.49	7	0.707184	3.36609e-07	3.3429
1340.5	7	0.50769	2.05078e-07	3.3429
1350.51	7	0.308289	9.52148e-08	3.36243
1360.52	7	0.10907	-1.50665e-05	3.32397
1370.53	7	-0.0904236	-7.67517e-05	3.26508
1380.54	7	-0.289856	-0.000140442	2.99255
1390.55	7	-0.48877	-0.000283051	2.49939
1400.56	7	-0.687866	-0.000421692	1.89423
1410.57	7	-0.512146	3.85529e-05	1.52252
1420.58	7	-0.312317	0.000269196	1.71844
1430.59	7	-0.113159	0.000357056	2.30499
1440.6	7	0.0847778	0.000170471	3.20648
1450.61	8	0.284088	5.97229e-06	3.3432
1460.62	8	0.483459	2.33978e-06	3.3432
1470.63	8	0.682892	1.42731e-06	3.32336
1480.64	8	0.881958	1.01624e-06	3.34229
1490.65	8	0.906372	6.14014e-07	3.34198
1500.66	8	0.707214	3.91235e-07	3.32275
1510.67	8	0.5078125	2.69165e-07	3.3432
1520.68	8	0.308411	8.23975e-08	3.32367
1530.69	8	0.10907	-1.54236e-05	3.32397
1540.7	8	-0.0904541	-7.73315e-05	3.22601
1550.71	8	-0.289856	-0.000141266	2.95319
1560.72	8	-0.488647	-0.000284332	2.49969
1570.73	8	-0.687866	-0.000422516	1.83624
1580.74	8	-0.512115	3.88031e-05	1.50299
1590.75	8	-0.312286	0.000269409	1.67938
1600.76	8	-0.113281	0.000358124	2.32452
1610.76	8	0.0848083	0.000171967	3.2074
1620.77	9	0.284088	5.98145e-06	3.32428
1630.78	9	0.483521	2.34436e-06	3.30322
1640.79	9	0.682922	1.45233e-06	3.32458
1650.8	9	0.881653	1.00983e-06	3.34351
1660.81	9	0.906067	6.33545e-07	3.32367
1670.82	9	0.707214	3.77197e-07	3.34351
1680.83	9	0.507843	2.52075e-07	3.30414
1690.84	9	0.308472	1.18408e-07	3.32458
1700.85	9	0.10907	-1.56769e-05	3.32458
1710.86	9	-0.090332	-7.77588e-05	3.20801
1720.87	9	-0.289795	-0.000142029	2.9538
1730.88	9	-0.488708	-0.000285309	2.50031
1740.89	9	-0.687805	-0.000423035	1.87439
1750.9	9	-0.512177	3.90442e-05	1.5033
1760.91	9	-0.312256	0.000269684	1.67877
1770.92	9	-0.113098	0.000358704	2.22656
1780.93	9	0.0848083	0.000172546	3.16772
1790.94	10	0.283997	5.96924e-06	3.32336
1800.95	10	0.483551	2.32117e-06	3.30292
1810.96	10	0.682861	1.45538e-06	3.32367
1820.97	10	0.881958	1.03271e-06	3.30292
1830.98	10	0.906372	5.96008e-07	3.30292
1840.99	10	0.707153	4.16565e-07	3.32336
1851	10	0.5078125	2.62756e-07	3.30383
1861.01	10	0.308441	5.7373e-08	3.32397
1871.02	10	0.109039	-1.5921e-05	3.30353
1881.03	10	-0.0904541	-7.80334e-05	3.22662
1891.04	10	-0.289825	-0.000142517	2.97363
1901.05	10	-0.488678	-0.000286102	2.46094
1911.06	10	-0.687927	-0.000423615	1.85486
1921.07	10	-0.712128	-0.00023053	1.34552
1931.08	10	-0.512115	0.000135895	1.26251
1941.09	10	-0.312134	0.000331787	1.46393
1951.1	10	-0.112793	0.000411804	2.05048
1961.11	10	0.0847778	0.000235779	3.10883
1971.12	11	0.284058	7.69043e-06	3.28369
1981.13	11	0.483551	3.03314e-06	3.284
1991.14	11	0.682892	1.80969e-06	3.30322
2001.14	11	0.881958	1.31744e-06	3.2843
2011.15	11	0.906067	7.80334e-07	3.30292
2021.16	11	0.707245	5.17883e-07	3.28369
2031.17	11	0.507782	3.32642e-07	3.30322
2041.18	11	0.30838	1.00403e-07	3.284
2051.19	11	0.109039	-1.62048e-05	3.2843
2061.2	11	-0.0903931	-7.86133e-05	3.20679
2071.21	11	-0.289856	-0.000143524	2.93335
2081.22	11	-0.488647	-0.000287659	2.46063
2091.23	11	-0.687836	-0.00042572	1.8161
2101.24	11	-0.712128	-0.000230591	1.3266
2111.25	11	-0.512146	0.000136108	1.24359
2121.26	11	-0.312042	0.00033197	1.46393
2131.27	11	-0.112885	0.000412781	2.07092
2141.28	11	0.0848694	0.00023703	3.07037
2151.29	12	0.284088	7.60498e-06	3.30322
2161.3	12	0.483551	3.04474e-06	3.2843
2171.31	12	0.682892	1.78436e-06	3.284
2181.32	12	0.881348	1.35284e-06	3.30292
2191.33	12	0.906372	8.31604e-07	3.28339
2201.34	12	0.707214	4.74854e-07	3.28369
2211.35	12	0.507904	3.28369e-07	3.26416
2221.36	12	0.308929	1.7395e-07	3.284
2231.37	12	0.108398	-1.65649e-05	3.28461
2241.38	12	-0.0897522	-7.9071e-05	3.18787
2251.39	12	-0.290405	-0.000144409	2.9541
2261.4	12	-0.489197	-0.000288818	2.42218
2271.41	12	-0.688354	-0.000427032	1.83594
2281.42	12	-0.712738	-0.000230652	1.3269
2291.43	12	-0.512482	0.000136566	1.24359
2301.44	12	-0.312897	0.000332367	1.46393
2311.45	12	-0.113007	0.000413177	1.97235
2321.46	12	0.0846558	0.000236542	3.05084
2331.47	13	0.284515	7.60193e-06	3.26538
2341.48	13	0.482941	2.99225e-06	3.284
2351.49	13	0.682343	1.80206e-06	3.24493
2361.5	13	0.881042	1.30188e-06	3.26447
2371.51	13	0.907593	8.03223e-07	3.24493
2381.51	13	0.706543	4.75464e-07	3.28369
2391.52	13	0.507935	3.01819e-07	3.26447
2401.53	13	0.308716	1.27869e-07	3.284
2411.54	13	0.108551	-1.67419e-05	3.26508
2421.55	13	-0.0906677	-7.94678e-05	3.16742
2431.56	13	-0.28949	-0.000144989	2.87537
2441.57	13	-0.488495	-0.000289276	2.46063
2451.58	13	-0.687836	-0.000427368	1.81671
2461.59	13	-0.888062	-0.000583801	1.30676
2471.6	13	-0.71167	-9.80835e-05	1.04767
2481.61	13	-0.511719	0.000209167	1.08673
2491.62	13	-0.311462	0.000389191	1.28754
2501.63	13	-0.112701	0.000469574	1.87469
2511.64	13	0.0854797	0.000326294	2.99225
2521.65	14	0.284668	1.11023e-05	3.24554
2531.66	14	0.483887	4.37927e-06	3.24524
2541.67	14	0.6828	2.57294e-06	3.24463
2551.68	14	0.881348	1.87103e-06	3.24463
2561.69	14	0.906067	1.18347e-06	3.24493
2571.7	14	0.706604	7.26929e-07	3.24493
2581.71	14	0.508087	5.24597e-07	3.26508
2591.72	14	0.30838	2.70386e-07	3.24554
2601.73	14	0.109131	-1.70776e-05	3.22601
2611.74	14	-0.0911255	-7.99255e-05	3.14819
2621.75	14	-0.2901	-0.000145935	2.8949
2631.76	14	-0.487885	-0.000290741	2.42249
2641.77	14	-0.688385	-0.00042926	1.796875
2651.78	14	-0.888672	-0.000584717	1.28754
2661.79	14	-0.711914	-9.78088e-05	1.04767
2671.8	14	-0.511688	0.000208618	1.0672
2681.81	14	-0.312622	0.000388641	1.28845
2691.82	14	-0.11319	0.00046991	1.83563
2701.83	14	0.0856934	0.000328644	2.95288
2711.84	15	0.283997	1.12e-05	3.22571
2721.85	15	0.484161	4.33228e-06	3.20648
2731.86	15	0.682648	2.57751e-06	3.24463
2741.87	15	0.881958	1.87653e-06	3.22571
2751.88	15	0.906067	1.24146e-06	3.2251
2761.89	15	0.707123	7.68127e-07	3.24524
2771.89	15	0.508453	4.776e-07	3.22632
2781.9	15	0.308868	2.69775e-07	3.22632
2791.91	15	0.109039	-1.73553e-05	3.22693
2801.92	15	-0.0896606	-8.05054e-05	3.09082
2811.93	15	-0.289398	-0.00014679	2.8363
2821.94	15	-0.488159	-0.00029187	2.34497
2831.95	15	-0.687866	-0.000430664	1.71906
2841.96	15	-0.888367	-0.0005859375	1.22467
2851.97	15	-0.712616	-9.73511e-05	1.04828
2861.98	15	-0.512268	0.000209229	1.08765
2871.99	15	-0.312592	0.000388916	1.32782
2882	15	-0.11203	0.000470398	1.91498
2892.01	15	0.085022	0.000328033	2.99255
2902.02	16	0.284668	1.10809e-05	3.20679
2912.03	16	0.48291	4.26483e-06	3.20618
2922.04	16	0.682465	2.60498e-06	3.20679
2932.05	16	0.881653	1.85028e-06	3.20618
2938.03	16	0.987549	1.54358e-06	3.20618

File: OCP_0
Time (s)	WE(1).Potential (V)	External(1).External 2 (V)
3.23876	-0.519409	3.84247
4.23876	-0.506592	3.86139
5.23876	-0.327454	3.84247
6.23876	-0.526733	3.862
7.23876	-0.439758	3.84369
8.23876	-0.458679	3.84247
9.23876	-0.463562	3.84308
10.2388	-0.464478	3.82324
11.2388	-0.515442	3.84277
12.2388	-0.52124	3.84186
13.2388	-0.489502	3.84277
14.2388	-0.515442	3.84155
15.2388	-0.500793	3.84308
16.2388	-0.498352	3.8623
17.2388	-0.509949	3.84247
18.2388	-0.5078125	3.84277
19.2388	-0.463257	3.84247
20.2388	-0.501099	3.84155
21.2388	-0.481873	3.82202
22.2388	-0.512695	3.8327
23.2388	-0.520325	3.86261
24.2388	-0.529175	3.84277
25.2388	-0.531616	3.8623
26.2388	-0.534363	3.84338
27.2388	-0.541382	3.86292
28.2388	-0.542297	3.84277
29.2388	-0.538025	3.82355
30.2388	-0.53772	3.84277
31.2388	-0.536804	3.82355
32.2388	-0.531616	3.86108
33.2388	-0.531921	3.84308
34.2388	-0.542908	3.84308
35.2388	-0.537415	3.86261
36.2388	-0.534973	3.82172
37.2388	-0.531921	3.8623
38.2388	-0.522461	3.862
39.2388	-0.543213	3.84308
40.2388	-0.536804	3.86169
41.2388	-0.524292	3.84308
42.2388	-0.523071	3.84308
43.2388	-0.541687	3.84308
44.2388	-0.525208	3.84216
45.2388	-0.516663	3.84277
46.2388	-0.541992	3.84338
47.2388	-0.540466	3.84277
48.2388	-0.497131	3.84277
49.2388	-0.487976	3.82263
50.2388	-0.466003	3.82355
51.2388	-0.433655	3.82324
52.2388	-0.460205	3.84247
53.2388	-0.399475	3.84277
54.2388	-0.473938	3.82355
55.2388	-0.457153	3.82324
56.2388	-0.365601	3.82385
57.2388	-0.526123	3.84308
58.2388	-0.470581	3.84338
59.2388	-0.482788	3.84247
60.2388	-0.444336	3.84277
61.2388	-0.461426	3.80371
62.2388	-0.461731	3.82294
63.2388	-0.466614	3.84216
64.2388	-0.469666	3.86261
65.2388	-0.473938	3.84277
66.2388	-0.4953	3.84247
67.2388	-0.509644	3.84277
68.2388	-0.531311	3.84247
69.2388	-0.504761	3.84338
70.2388	-0.477905	3.84308
71.2388	-0.493469	3.84308
72.2388	-0.238342	3.84277
73.2388	-0.357056	3.84247
74.2388	2.54333	3.84216
75.2388	2.10999	3.77899
76.2388	2.20001	3.8031
77.2388	1.56067	3.77869
78.2388	1.04095	3.77777
79.2388	4.05945	3.75916
80.2388	3.01331	3.62244
81.2388	2.59674	3.71857
82.2388	2.34711	3.68195
83.2388	2.19147	3.68134
84.2388	1.77643	2.64557
85.2388	1.88477	3.56354
86.2388	2.44873	3.13293
87.2388	2.4234	2.66479
88.2388	1.35254	2.54761
89.2388	0.734863	3.349
90.2388	0.0568237	3.40759
91.2388	0.497437	3.40759
92.2388	0.491943	3.40576
93.2388	0.155823	3.44604
94.2388	0.463562	3.50494
95.2388	8.30231	3.52203
96.2388	0.384521	3.52478
97.2388	1.21918	3.54401
98.2388	8.90778	3.50372
99.2388	4.24011	3.54401
100.239	0.163239	3.54401
101.239	0.186798	3.52509
102.239	0.166718	3.52539
103.239	1.11816	3.56354
104.239	2.8717	3.56354
105.239	6.92902	3.54431
106.239	4.26117	3.62213
107.239	1.11725	3.60321
108.239	0.777893	3.60199
109.239	-1.16608	3.62305
110.239	2.71423	3.62274
111.239	10	3.56171
112.239	8.94287	3.56201
113.239	7.79022	3.56232
114.239	6.85303	3.58154
115.239	-7.04193	3.58459
116.239	8.79272	3.44482
117.239	7.24945	3.56293
118.239	5.96039	3.56293
119.239	5.16815	3.58307
120.239	10	3.56171
121.239	10	3.58124
122.239	9.60663	3.58154
123.239	8.5849	3.56201
124.239	7.64679	3.56262
125.239	6.44836	3.58124
126.239	6.21429	3.56323
127.239	4.92004	3.56262
128.239	5.33264	3.5437
129.239	4.97375	3.48511
130.239	4.74121	3.54248
131.239	4.20746	3.4848
132.239	4.06708	3.58307
133.239	3.73962	3.5434
134.239	2.10571	3.54462
135.239	3.34991	3.5434
136.239	-3.1131	3.56476
137.239	-2.48871	3.48694
138.239	-4.26514	3.34991
139.239	0.55481	3.46558
140.239	-3.69415	3.38837
141.239	10	3.40454
142.239	8.78632	3.40576
143.239	7.36084	3.40607
144.239	5.83557	3.44391
145.239	4.37225	3.40576
146.239	1.68884	3.40729
147.239	1.89423	3.40698
148.239	0.958557	3.38806
149.239	1.07025	3.40668
150.239	1.12366	3.44604
151.239	1.53412	3.44635
152.239	2.52228	3.46527
153.239	2.08252	3.46558
154.239	1.83624	3.48572
155.239	1.64856	3.46558
156.239	1.10687	3.46588
157.239	-0.735474	3.44635
158.239	-1.37543	3.46619
159.239	-2.27386	3.46619
160.239	-0.526428	3.44604
161.239	-1.4032	3.4668
162.239	-2.06787	3.44635
163.239	-0.470581	3.42651
164.239	-0.540466	3.4668
165.239	-0.663452	3.44574
166.239	0.754089	3.50555
167.239	-2.94708	3.48541
168.239	-4.5224	3.46619
169.239	-1.31683	3.46527
170.239	-0.256348	3.36792
171.239	8.69354	3.40454
172.239	4.40674	3.4256
173.239	0.126221	3.42743
174.239	0.089447	3.44513
175.239	0.089447	3.46588
176.239	0.0894775	3.44635
177.239	0.0895081	3.42682
178.239	0.0895691	3.42743
179.239	0.0895996	3.42682
180.239	0.0896301	3.42682
181.239	0.0896606	3.42682
182.239	0.0896606	3.42712
183.239	0.0897217	3.42682
184.239	0.0897217	3.40729
185.239	0.0897827	3.42682
186.239	0.0898132	3.42682
187.239	0.08984375	3.40729
188.239	0.08984375	3.40729
189.239	0.0898743	3.40729
190.239	0.0899048	3.38776
191.239	0.0899353	3.40759
192.239	0.0899658	3.42682
193.239	0.0899963	3.4259
194.239	0.0899963	3.4259
195.239	0.0900269	3.42682
196.239	0.0900574	3.42682
197.239	0.0900879	3.40637
198.239	0.0901184	3.40637
199.239	0.0901489	3.42743
200.239	0.0901794	3.42651
201.239	0.0901794	3.42651
202.239	0.09021	3.42621
203.239	0.0902405	3.42682
204.239	0.090271	3.42712
205.239	0.0903015	3.42682
206.239	0.090332	3.42621
207.239	0.0903625	3.42682
208.239	0.0903625	3.42743
209.239	0.0903931	3.42712
210.239	0.0904236	3.44666
211.239	0.0904541	3.40759
212.239	0.0904846	3.42682
213.239	0.0904846	3.42682
214.239	0.0905151	3.44635
215.239	0.0905457	3.44666
216.239	0.0905762	3.40668
217.239	0.0906067	3.42682
218.239	0.0906067	3.42682
219.239	0.0906372	3.42682
220.239	0.0906677	3.42682
221.239	0.0907288	3.44666
222.239	0.0907288	3.42712
223.239	0.0907593	3.42712
224.239	0.0907898	3.42682
225.239	0.0908203	3.4079
226.239	0.0908508	3.42621
227.239	0.0908813	3.44696
228.239	0.0909119	3.40668
229.239	0.0909424	3.40729
230.239	0.0909729	3.42682
231.239	0.0910034	3.42682
232.239	0.0910034	3.42682
233.239	0.0910339	3.42682
234.239	0.0910645	3.44513
235.239	0.091095	3.42712
236.239	0.091095	3.44635
237.239	0.091095	3.40759
238.239	0.0911255	3.44604
239.239	0.091156	3.42682
240.239	0.0911865	3.40668
241.239	0.0911865	3.40729
242.239	0.091217	3.42712
243.239	0.0912476	3.44604
244.239	0.0912781	3.42712
245.239	0.0913086	3.42682
246.239	0.0913086	3.4259
247.239	0.0913391	3.42651
248.239	0.0913696	3.44635
249.239	0.0914001	3.42651
250.239	0.0914001	3.4259
251.239	0.0914307	3.42682
252.239	0.0914612	3.44666
253.239	0.0914612	3.42682
254.239	0.0914917	3.42682
255.239	0.0915222	3.42651
256.239	0.0915222	3.42682
257.239	0.0915527	3.42712
258.239	0.0915833	3.42712
259.239	0.0916138	3.42651
260.239	0.0916443	3.42682
261.239	0.0916443	3.42682
262.239	0.0916748	3.40729
263.239	0.0917053	3.42651
264.239	0.0917358	3.44482
265.239	0.0917358	3.42651
266.239	0.0917664	3.42682
267.239	0.0917969	3.40759
268.239	0.0918274	3.44635
269.239	0.0918274	3.44666
270.239	0.0918579	3.44635
271.239	0.0918884	3.42682
272.239	0.0919189	3.42712
273.239	0.0919495	3.40729
274.239	0.0919495	3.42743
275.239	0.09198	3.42712
276.239	0.0920105	3.42651
277.239	0.092041	3.42682
278.239	0.092041	3.42682
279.239	0.0920715	3.42743
280.239	0.0920715	3.4259
281.239	0.0921021	3.40759
282.239	0.0921021	3.4079
283.239	0.0921326	3.42621
284.239	0.0921631	3.42682
285.239	0.0921936	3.4259
286.239	0.0921936	3.42682
287.239	0.0922241	3.42651
288.239	0.0922241	3.44543
289.239	0.0922546	3.42682
290.239	0.0922852	3.42712
291.239	0.0922852	3.42682
292.239	0.0923157	3.42682
293.239	0.0923462	3.42682
294.239	0.0923767	3.42712
295.239	0.0923767	3.44666
296.239	0.0924072	3.42682
297.239	0.0924377	3.44604
298.239	0.0924377	3.44635
299.239	0.0924683	3.42651
300.239	0.0924988	3.40698
301.239	0.0924988	3.42682
302.239	0.0925293	3.42682

File: OCP_1
Time (s)	WE(1).Potential (V)	External(1).External 2 (V)
303.687	0.0925598	3.40729
304.687	0.0925903	3.42651
305.687	0.0925903	3.42682
306.687	0.0926208	3.44604
307.687	0.0926514	3.42682
308.687	0.0926514	3.42712
309.687	0.0926819	3.42651
310.687	0.0927124	3.42651
311.687	0.0927124	3.42682
312.687	0.0927429	3.42651
313.687	0.0927429	3.44635
314.687	0.0927734	3.42682
315.687	0.092804	3.42682
316.687	0.0928345	3.42743
317.687	0.0928345	3.42682
318.687	0.092865	3.44635
319.687	0.0928955	3.42682
320.687	0.0928955	3.42712
321.687	0.092926	3.42712
322.687	0.0929565	3.42651
323.687	0.0929565	3.42621
324.687	0.0929871	3.42621
325.687	0.0929871	3.42651
326.687	0.0930176	3.42712
327.687	0.0930481	3.42743
328.687	0.0930481	3.40698
329.687	0.0930786	0.0500793
330.687	0.0931091	0.0499573
331.687	0.0931091	0.0500793
332.687	0.0931396	3.4259
333.687	0.0931396	3.44543
334.687	0.0931702	3.4259
335.687	0.0932007	3.44543
336.687	0.0932007	3.44635
337.687	0.0932312	3.44452
338.687	0.0932312	3.44543
339.687	0.0932617	3.44574
340.687	0.0932922	0.0501099
341.687	0.0932922	0.0501404
342.687	0.0933228	0.0499878
343.687	0.0933533	0.0499268
344.687	0.0933533	0.0499878
345.687	0.0933533	0.0501404
346.687	0.0933838	0.0501404
347.687	0.0933838	0.0499878
348.687	0.0934143	0.0498962
349.687	0.0934448	0.0500488
350.687	0.0934448	0.0499878
351.687	0.0934753	0.0501404
352.687	0.0934753	0.0500488
353.687	0.0935059	0.0500488
354.687	0.0935059	0.0501709
355.687	0.0935364	0.0500793
356.687	0.0935364	3.36761
357.687	0.0935669	3.46466
358.687	0.0935669	3.43719
359.687	0.0935974	3.42529
360.687	0.0935974	3.44604
361.687	0.0936279	3.42651
362.687	0.0936584	3.44543
363.687	0.093689	3.44604
364.687	0.093689	3.44666
365.687	0.0937195	3.42621
366.687	0.0937195	3.42682
367.687	0.09375	3.44574
368.687	0.09375	3.42651
369.687	0.0937805	3.44604
370.687	0.093811	3.42621
371.687	0.093811	3.44635
372.687	0.0938416	3.40637
373.687	0.0938416	3.44574
374.687	0.0938721	3.46588
375.687	0.0939026	3.44727
376.687	0.0939026	3.44604
377.687	0.0939331	3.44574
378.687	0.0939331	3.44604
379.687	0.0939636	3.42682
380.687	0.0939636	3.44666
381.687	0.0939636	3.42712
382.687	0.0939941	3.44635
383.687	0.0939941	3.44635
384.687	0.0940247	3.42682
385.687	0.0940247	3.44666
386.687	0.0940552	3.44574
387.687	0.0940552	3.44635
388.687	0.0940552	3.44604
389.687	0.0940857	3.42712
390.687	0.0941162	3.42682
391.687	0.0941162	3.44635
392.687	0.0941467	3.42682
393.687	0.0941467	3.44604
394.687	0.0941467	3.42651
395.687	0.0941772	3.44604
396.687	0.0941772	3.42712
397.687	0.0942078	3.44635
398.687	0.0942078	3.46558
399.687	0.0942383	3.46588
400.687	0.0942383	3.44666
401.687	0.0942688	3.42651
402.687	0.0942993	3.4259
403.687	0.0942993	3.42621
404.687	0.0943298	3.46588
405.687	0.0943604	3.42621
406.687	0.0943604	3.46558
407.687	0.0943909	3.44513
408.687	0.0943909	3.44604
409.687	0.0944214	3.44604
410.687	0.0944214	3.44635
411.687	0.0944519	3.42682
412.687	0.0944824	3.44635
413.687	0.0944824	3.44604
414.687	0.0945129	3.44635
415.687	0.0945129	3.42682
416.687	0.0945129	3.44635
417.687	0.0945129	3.4259
418.687	0.0945435	3.44574
419.687	0.0945435	3.44543
420.687	0.094574	3.42651
421.687	0.094574	3.44574
422.687	0.094574	3.44482

File: OCP_3
Time (s)	WE(1).Potential (V)	External(1).External 2 (V)
2939.04	0.866699	3.19122
2940.04	0.768738	3.23151
2941.04	0.684814	3.21228
2942.04	0.611572	3.21198
2943.04	0.54657	3.21106
2944.04	0.488678	3.21228
2945.04	0.4375	3.21198
2946.04	0.392334	3.23151
2947.04	0.352936	3.19336
2948.04	0.319244	3.21167
2949.04	0.291748	3.23151
2950.04	0.270782	3.21167
2951.04	0.255463	3.21198
2952.04	0.244202	3.21228
2953.04	0.235626	3.21198
2954.04	0.228912	3.21228
2955.04	0.223511	3.21259
2956.04	0.218994	3.21167
2957.04	0.215179	3.21106
2958.04	0.211914	3.21045
2959.04	0.209076	3.21136
2960.04	0.206512	3.19214
2961.04	0.204285	3.23059
2962.04	0.20224	3.22937
2963.04	0.200409	3.19275
2964.04	0.1987	3.21014
2965.04	0.197174	3.21106
2966.04	0.19574	3.21106
2967.04	0.194427	3.21136
2968.04	0.193207	3.21167
2969.04	0.192078	3.19153
2970.04	0.19101	3.21167
2971.04	0.189972	3.19153
2972.04	0.189087	3.19275
2973.04	0.188171	3.21228
2974.04	0.187347	3.21289
2975.04	0.186554	3.21198
2976.04	0.185791	3.19305
2977.04	0.185089	3.19275
2978.04	0.184418	3.19305
2979.04	0.183777	3.19305
2980.04	0.183136	3.21136
2981.04	0.182556	3.19275
2982.04	0.181976	3.21198
2983.04	0.181458	3.21106
2984.04	0.180939	3.19122
2985.04	0.18045	3.21198
2986.04	0.179962	3.21198
2987.04	0.179504	3.21075
2988.04	0.179077	3.21167
2989.04	0.17865	3.21198
2990.04	0.178223	3.21198
2991.04	0.177826	3.21167
2992.04	0.17746	3.21106
2993.04	0.177094	3.21198
2994.04	0.176727	3.23151
2995.04	0.176392	3.23151
2996.04	0.176025	3.21228
2997.04	0.17572	3.21198
2998.04	0.175385	3.19275
2999.04	0.175079	3.19275
3000.04	0.174774	3.19275
3001.04	0.1745	3.21136
3002.04	0.174225	3.21198
3003.04	0.17395	3.19275
3004.04	0.173676	3.19336
3005.04	0.173431	3.21228
3006.04	0.173157	3.2309
3007.04	0.172913	3.19183
3008.04	0.172668	3.21136
3009.04	0.172424	3.19244
3010.04	0.17218	3.21014
3011.04	0.171967	3.19336
3012.04	0.171783	3.19244
3013.04	0.17157	3.19244
3014.04	0.171356	3.21198
3015.04	0.171173	3.21228
3016.04	0.170959	3.19336
3017.04	0.170776	3.19305
3018.04	0.170593	3.21198
3019.04	0.17041	3.2312
3020.04	0.170227	3.19336
3021.04	0.170044	3.19336
3022.04	0.169861	3.19275
3023.04	0.169678	3.19275
3024.04	0.169525	3.21075
3025.04	0.169373	3.1723
3026.04	0.169189	3.19275
3027.04	0.169067	3.21198
3028.04	0.168915	3.19244
3029.04	0.168793	3.21198
3030.04	0.16864	3.23059
3031.04	0.168488	3.19275
3032.04	0.168365	3.19244
3033.04	0.168213	3.19305
3034.04	0.168091	3.19275
3035.04	0.167969	3.19275
3036.04	0.167816	3.21167
3037.04	0.167694	3.21106
3038.04	0.167572	3.21167
3039.04	0.16745	3.23151
3040.04	0.167297	3.21106
3041.04	0.167206	3.19275
3042.04	0.167084	3.21198
3043.04	0.166962	3.21045
3044.04	0.16684	3.21228
3045.04	0.166748	3.23151
3046.04	0.166626	3.21198
3047.04	0.166504	3.19305
3048.04	0.166412	3.21136
3049.04	0.16629	3.21167
3050.04	0.166199	3.21198
3051.04	0.166077	3.21228
3052.04	0.165985	3.21228
3053.04	0.165894	3.19244
3054.04	0.165802	3.21167
3055.04	0.16568	3.19214
3056.04	0.165588	3.21167
3057.04	0.165497	3.21228
3058.04	0.165405	3.21198
3059.04	0.165283	3.21167
3060.04	0.165253	3.21198
3061.04	0.165131	3.21198
3062.04	0.16507	3.19214
3063.04	0.164978	3.21198
3064.04	0.164886	3.19275
3065.04	0.164795	3.21228
3066.04	0.164734	3.21228
3067.04	0.164642	3.21106
3068.04	0.164551	3.21167
3069.04	0.16449	3.19122
3070.04	0.164398	3.21198
3071.04	0.164337	3.21136
3072.04	0.164246	3.19275
3073.04	0.164154	3.19244
3074.04	0.164093	3.21198
3075.04	0.164032	3.21198
3076.04	0.16394	3.19275
3077.04	0.163879	3.21198
3078.04	0.163818	3.21198
3079.04	0.163727	3.17352
3080.04	0.163666	3.19275
3081.04	0.163574	3.21167
3082.04	0.163513	3.19275
3083.04	0.163452	3.21198
3084.04	0.163391	3.21198
3085.04	0.16333	3.21198
3086.04	0.163269	3.19275
3087.04	0.163208	3.21198
3088.04	0.163147	3.19305
3089.04	0.163086	3.19275
3090.04	0.163025	3.23151
3091.04	0.162964	3.19275
3092.04	0.162903	3.19275
3093.04	0.162811	3.19153
3094.04	0.162781	3.19244
3095.04	0.16272	3.19305
3096.04	0.162659	3.19122
3097.04	0.162598	3.19275
3098.04	0.162537	3.21198
3099.04	0.162476	3.21136
3100.04	0.162415	3.19275
3101.04	0.162354	3.19275
3102.04	0.162292	3.19244
3103.04	0.162231	3.21106
3104.04	0.162201	3.19305
3105.04	0.16214	3.19275
3106.04	0.162079	3.19275
3107.04	0.162018	3.21198
3108.04	0.161987	3.19275
3109.04	0.161926	3.19305
3110.04	0.161865	3.21198
3111.04	0.161835	3.19275
3112.04	0.161774	3.19275
3113.04	0.161713	3.21198
3114.04	0.161652	3.19244
3115.04	0.161621	3.21228
3116.04	0.16156	3.21075
3117.04	0.16153	3.19183
3118.04	0.161469	3.19275