Folder: electrochromicfilms/Edgar/20240424/20240424/CV/sample-20240417_A

File: CV_2
Time (s)	Scan	WE(1).Potential (V)	WE(1).Current (A)	External(1).External 2 (V)	Q+	Q-
429.076	1	0.113922	9.49249e-07	3.0896
438.963	1	-0.0695801	-5.92651e-05	2.99225
448.851	1	-0.266815	-0.000107574	2.77802
458.739	1	-0.462646	-0.00021991	2.28546
468.626	1	-0.342194	0.000100098	2.03156
478.514	1	-0.146454	0.000188324	2.54456
488.402	1	0.0506287	6.22559e-05	2.99194
498.289	2	0.247101	4.57153e-06	3.08838
508.177	2	0.444519	1.91986e-06	3.0899
518.065	2	0.640778	1.37726e-06	3.0896
527.952	2	0.836487	1.1969e-06	3.06946
537.84	2	0.957336	8.74939e-07	3.04901
547.728	2	0.758362	5.48096e-07	3.06976
557.615	2	0.562683	3.95203e-07	3.06976
567.503	2	0.365692	2.74963e-07	3.06976
577.391	2	0.170135	-1.75781e-06	3.07098
587.278	2	-0.0252838	-4.84558e-05	3.03162
597.166	2	-0.223999	-9.21326e-05	2.79694
607.054	2	-0.420166	-0.000188629	2.34497
616.941	2	-0.383728	4.68445e-05	1.89423
626.829	2	-0.187195	0.000195374	2.32422
636.717	2	0.0108307	8.36182e-05	2.89429
646.604	3	0.206451	7.32727e-06	3.05084
656.492	3	0.403473	2.06604e-06	3.07068
666.38	3	0.599304	1.35101e-06	3.07068
676.267	3	0.794983	1.07422e-06	3.07037
686.155	3	0.994873	1.026e-06	3.04993
696.043	3	0.800171	5.71899e-07	3.06915
705.93	3	0.605011	4.31519e-07	2.97272
715.818	3	0.407776	2.89307e-07	3.07037
725.706	3	0.210876	-2.58606e-07	3.08929
735.593	3	0.0161621	-3.75916e-05	3.03162
745.481	3	-0.182709	-8.30383e-05	2.8363
755.369	3	-0.379791	-0.000161499	2.4234
765.256	3	-0.425354	-2.43073e-05	1.85577
775.144	3	-0.227417	0.000187439	2.1286
785.032	3	-0.0293091	0.000109619	2.83661
794.919	4	0.164886	1.60309e-05	3.03131
804.807	4	0.362091	2.36969e-06	3.05023
814.695	4	0.557892	1.4856e-06	3.03101
824.582	4	0.755615	1.09009e-06	3.07007
834.47	4	0.953064	9.95483e-07	3.06885
844.358	4	0.843811	6.08215e-07	3.06946
854.245	4	0.64621	3.87878e-07	3.06885
864.133	4	0.448425	3.28369e-07	3.05084
874.021	4	0.252594	3.87573e-08	3.05145
883.908	4	0.055481	-2.60254e-05	3.03131
893.796	4	-0.142212	-7.48291e-05	2.87506
903.684	4	-0.33847	-0.000136261	2.51862
913.571	4	-0.534546	-0.000260071	1.85486
923.459	4	-0.468201	3.52295e-05	1.46423
933.347	4	-0.271515	0.000217987	1.73859
943.234	4	-0.075531	0.000179871	2.64069
953.122	5	0.121277	3.591e-05	2.99255
963.01	5	0.317322	3.81042e-06	3.03101
972.897	5	0.51413	2.24548e-06	3.04993
982.785	5	0.711243	1.73859e-06	3.04932
992.673	5	0.908203	1.35406e-06	3.06885
1002.56	5	0.886536	9.84192e-07	3.04993
1012.45	5	0.690399	7.23267e-07	3.03131
1022.34	5	0.493378	5.34363e-07	3.06946
1032.22	5	0.295837	3.52478e-07	3.05115
1042.11	5	0.0995178	-1.43677e-05	3.06976
1052	5	-0.0975647	-6.54907e-05	2.93365
1061.89	5	-0.294739	-0.000113281	2.62115
1071.77	5	-0.490723	-0.000231445	1.97235
1081.66	5	-0.513123	-4.05823e-05	1.44562
1091.55	5	-0.315582	0.000192596	1.60095
1101.44	5	-0.119232	0.000218567	2.38312
1111.32	5	0.0778198	5.56946e-05	2.95288
1121.21	6	0.274506	4.68445e-06	3.03162
1131.1	6	0.471375	2.47131e-06	3.05084
1140.99	6	0.668304	1.83533e-06	3.05023
1150.88	6	0.863953	1.40472e-06	3.04871
1160.76	6	0.929565	1.06354e-06	3.03101
1170.65	6	0.734131	7.51648e-07	3.04962
1180.54	6	0.536469	5.94788e-07	3.05023
1190.43	6	0.33902	4.74548e-07	3.05023
1200.31	6	0.142059	-5.34668e-06	3.04993
1210.2	6	-0.054657	-5.5603e-05	2.97211
1220.09	6	-0.250336	-9.75952e-05	2.67975
1229.98	6	-0.447968	-0.000203857	2.1286
1239.86	6	-0.556335	-0.000142731	1.46301
1249.75	6	-0.358704	0.000160095	1.46332
1259.64	6	-0.162628	0.00023587	2.12891
1269.53	6	0.0357666	7.89795e-05	2.89429
1279.42	7	0.229736	6.56433e-06	3.0304
1289.3	7	0.427307	2.77252e-06	3.04993
1299.19	7	0.623749	1.91101e-06	3.03009
1309.08	7	0.819702	1.5155e-06	3.04962
1318.97	7	0.973206	1.19995e-06	3.04901
1328.85	7	0.776367	8.5968e-07	3.04962
1338.74	7	0.579742	6.3446e-07	3.05023
1348.63	7	0.3828125	4.80347e-07	3.04962
1358.52	7	0.186371	-9.1217e-07	3.05084
1368.4	7	-0.00799561	-4.46472e-05	2.99225
1378.29	7	-0.20755	-8.63647e-05	2.75726
1388.18	7	-0.404266	-0.000175476	2.26532
1398.07	7	-0.601044	-0.00029425	1.54205
1407.95	7	-0.602997	-7.51038e-05	1.10535
1417.84	7	-0.404694	0.000188507	1.18408
1427.73	7	-0.208069	0.000275085	1.67847
1437.62	7	-0.0102844	0.00013916	2.7771
1447.51	8	0.184204	1.53687e-05	3.03131
1457.39	8	0.380402	3.98529e-06	3.03101
1467.28	8	0.578064	2.67395e-06	3.04993
1477.17	8	0.775146	2.12402e-06	3.04901
1487.06	8	0.971069	1.70654e-06	3.06793
1496.94	8	0.822754	1.17493e-06	3.06946
1506.83	8	0.626648	8.81653e-07	3.05054
1516.72	8	0.429047	7.55005e-07	3.07007
1526.61	8	0.233215	2.84729e-07	3.05023
1536.49	8	0.0377869	-3.28339e-05	3.01208
1546.38	8	-0.160767	-7.7179e-05	2.81616
1556.27	8	-0.357849	-0.000146759	2.32361
1566.16	8	-0.553802	-0.000268738	1.60126
1576.05	8	-0.649139	-0.000184387	1.04675
1585.93	8	-0.451721	0.000148499	1.02814
1595.82	8	-0.254364	0.000267059	1.38458
1605.71	8	-0.0585327	0.00020163	2.56317
1615.6	9	0.137421	3.39874e-05	2.95258
1625.48	9	0.334808	4.58984e-06	3.03192
1635.37	9	0.531586	2.99469e-06	3.05054
1645.26	9	0.728699	2.2821e-06	3.03101
1655.15	9	0.924377	1.87592e-06	3.01147
1665.03	9	0.869141	1.25732e-06	3.04901
1674.92	9	0.672607	1.00372e-06	3.06885
1684.81	9	0.475403	7.92847e-07	3.05084
1694.7	9	0.278381	5.14526e-07	3.05054
1704.59	9	0.0813599	-2.02423e-05	3.05115
1714.47	9	-0.114563	-6.88782e-05	2.87537
1724.36	9	-0.31073	-0.000121735	2.44141
1734.25	9	-0.507263	-0.0002421875	1.65955
1744.14	9	-0.694977	-0.000336243	0.98938
1754.02	9	-0.497589	9.63745e-05	0.851746
1763.91	9	-0.300995	0.000249756	1.12549
1773.8	9	-0.104279	0.000249756	2.10876
1783.69	9	0.0921326	5.65186e-05	2.91412
1793.57	10	0.288177	5.51147e-06	2.99133
1803.46	10	0.486084	3.24188e-06	2.99194
1813.35	10	0.682159	2.40448e-06	2.99194
1823.24	10	0.879211	1.95251e-06	3.0307
1833.12	10	0.914612	1.42059e-06	3.0307
1843.01	10	0.718842	1.05347e-06	3.03162
1852.9	10	0.521423	8.36792e-07	3.05054
1862.79	10	0.325531	6.073e-07	3.04993
1872.68	10	0.127441	-8.80127e-06	3.03162
1882.56	10	-0.0691833	-5.96313e-05	2.91412
1892.45	10	-0.265839	-0.000102997	2.56378
1902.34	10	-0.461121	-0.000214325	1.79657
1912.23	10	-0.659271	-0.000329712	1.04767
1922.11	10	-0.744537	-0.000251251	0.675842
1932	10	-0.546112	0.000114349	0.636108
1941.89	10	-0.348785	0.000276794	0.831909
1951.78	10	-0.152283	0.000312073	1.50299
1961.66	10	0.0450348	0.000111664	2.81647
1971.55	11	0.23996	9.24377e-06	2.95197
1981.44	11	0.437378	4.56238e-06	2.95105
1991.33	11	0.633575	3.31299e-06	2.99103
2001.22	11	0.829468	2.56073e-06	2.99072
2011.1	11	0.963745	1.97876e-06	2.99072
2020.99	11	0.766602	1.47278e-06	2.99133
2030.88	11	0.57135	1.10382e-06	3.01147
2040.77	11	0.373291	9.21326e-07	3.01239
2050.65	11	0.176697	-1.5033e-06	3.0127
2060.54	11	-0.0184235	-4.7995e-05	2.95319
2070.43	11	-0.216309	-8.94775e-05	2.6413
2080.32	11	-0.413727	-0.00018338	1.95343
2090.2	11	-0.610748	-0.000300385	1.16577
2100.09	11	-0.793152	-0.000405884	0.714783
2109.98	11	-0.596008	4.87213e-05	0.616699
2119.87	11	-0.398224	0.000250305	0.753784
2129.75	11	-0.200165	0.000315125	1.20392
2139.64	11	-0.00354919	0.000179901	2.64099
2149.53	12	0.191986	1.76361e-05	2.91382
2159.42	12	0.388397	5.10254e-06	2.95197
2169.31	12	0.585449	3.6441e-06	2.9715
2179.19	12	0.780945	2.79816e-06	2.9715
2189.08	12	0.978088	2.26929e-06	2.97089
2198.97	12	0.814819	1.61255e-06	2.9715
2208.86	12	0.618866	1.20514e-06	2.99133
2218.74	12	0.422485	1.00128e-06	2.97119
2228.63	12	0.225037	3.71704e-07	2.97241
2238.52	12	0.0304382	-3.57971e-05	2.97333
2248.41	12	-0.168427	-7.94373e-05	2.73834
2258.29	12	-0.364929	-0.000152649	2.16614
2268.18	12	-0.561829	-0.000273407	1.3266
2278.07	12	-0.760193	-0.000401398	0.77301
2287.96	12	-0.644409	-3.01025e-05	0.616669
2297.85	12	-0.447083	0.000214752	0.695038
2307.73	12	-0.249329	0.000308228	1.04767
2317.62	12	-0.0531006	0.000252594	2.2641
2327.51	13	0.142975	3.98132e-05	2.89368
2337.4	13	0.34024	5.79224e-06	2.91229
2347.28	13	0.536743	3.81622e-06	2.93213
2357.17	13	0.7341	2.96143e-06	2.95074
2367.06	13	0.929565	2.42249e-06	2.95074
2376.95	13	0.863342	1.68671e-06	2.95135
2386.83	13	0.667694	1.29639e-06	2.95074
2396.72	13	0.471069	1.03882e-06	2.97089
2406.61	13	0.274719	7.39441e-07	2.97119
2416.5	13	0.0770874	-2.28851e-05	2.95227
2426.38	13	-0.120209	-7.06787e-05	2.81494
2436.27	13	-0.316681	-0.000125732	2.3233
2446.16	13	-0.51297	-0.000245941	1.54114
2456.05	13	-0.710358	-0.000364594	0.870667
2465.94	13	-0.892639	-0.000501404	0.576752
2475.82	13	-0.695221	-2.33765e-05	0.498688
2485.71	13	-0.497864	0.000228821	0.557739
2495.6	13	-0.299774	0.000341919	0.7724
2505.49	13	-0.103638	0.000354004	1.56067
2515.37	13	0.0918579	0.000106323	2.79541
2525.26	14	0.288422	9.552e-06	2.89276
2535.15	14	0.485474	5.68848e-06	2.91351
2545.04	14	0.681946	4.17847e-06	2.91199
2554.92	14	0.879822	3.31818e-06	2.93121
2564.81	14	0.916138	2.41608e-06	2.91168
2574.7	14	0.719666	1.79169e-06	2.93243
2584.59	14	0.521759	1.41174e-06	2.93243
2594.48	14	0.324585	1.11176e-06	2.91321
2604.36	14	0.127808	-9.57031e-06	2.93182
2614.25	14	-0.0689697	-6.06384e-05	2.83478
2624.14	14	-0.264862	-0.000104736	2.45941
2634.03	14	-0.46167	-0.000216187	1.69891
2643.91	14	-0.658875	-0.000331757	0.969849
2653.8	14	-0.855713	-0.000485931	0.6362
2663.69	14	-0.74707	-0.000116058	0.478546
2673.58	14	-0.548859	0.000177765	0.538361
2683.46	14	-0.351868	0.000324829	0.714478
2693.35	14	-0.154297	0.000361725	1.2619
2703.24	14	0.0435455	0.000192261	2.64069
2713.13	15	0.237152	1.33301e-05	2.85431
2723.02	15	0.434845	6.31714e-06	2.89398
2732.9	15	0.631775	4.53796e-06	2.9126
2742.79	15	0.827332	3.57849e-06	2.9129
2752.68	15	0.967407	2.77618e-06	2.91321
2762.57	15	0.769043	1.9754e-06	2.9126
2772.45	15	0.573181	1.61102e-06	2.91351
2782.34	15	0.376556	1.21826e-06	2.91321
2792.23	15	0.1796875	-1.30341e-06	2.93274
2802.12	15	-0.0148682	-4.85291e-05	2.85492
2812	15	-0.214081	-9.03625e-05	2.56317
2821.89	15	-0.411285	-0.000183746	1.91376
2831.78	15	-0.607452	-0.000300537	1.12671
2841.67	15	-0.805054	-0.000440002	0.674744
2851.55	15	-0.798645	-0.000225189	0.499359
2861.44	15	-0.600922	0.000117126	0.499359
2871.33	15	-0.403351	0.000298523	0.635864
2881.22	15	-0.204437	0.000359131	1.04767
2891.11	15	-0.00756226	0.000278381	2.36298
2897.21	15	0.110504	8.5907e-05	2.79663

File: OCP_0
Time (s)	WE(1).Potential (V)	External(1).External 2 (V)
3.08376	-0.440674	3.38837
4.08376	-0.453796	3.38745
5.08376	-0.466919	3.3493
6.08376	-0.46936	3.36823
7.08376	-0.467529	3.36761
8.08376	-0.443726	3.38837
9.08376	-0.46875	3.36914
10.0838	-0.467529	3.36945
11.0838	-0.472412	3.36823
12.0838	-0.464783	3.36853
13.0838	-0.467834	3.36792
14.0838	-0.455627	3.36823
15.0838	-0.117737	3.38867
16.0838	-0.377502	3.36792
17.0838	-0.365601	3.34961
18.0838	-0.413513	3.36823
19.0838	-0.422974	3.36823
20.0838	-0.427856	3.36884
21.0838	-0.419006	3.36975
22.0838	-0.435486	3.36914
23.0838	-0.444641	3.34961
24.0838	-0.426941	3.36914
25.0838	-0.419312	3.3493
26.0838	-0.344238	3.38837
27.0838	-0.35553	3.38806
28.0838	-0.401917	3.38928
29.0838	-0.484924	3.38806
30.0838	-0.482178	3.38715
31.0838	-0.306976	3.36884
32.0838	-0.37384	3.36792
33.0838	-0.44342	3.36914
34.0838	-0.461426	3.36792
35.0838	-0.269012	3.34808
36.0838	1.24512	3.38745
37.0838	1.0495	3.36731
38.0838	-1.08643	3.36884
39.0838	-0.806885	3.38745
40.0838	-0.672607	3.3493
41.0838	-0.637817	3.38928
42.0838	-0.627136	3.34839
43.0838	-0.679321	3.36792
44.0838	-0.6073	3.38837
45.0838	-0.604248	3.38806
46.0838	-0.596313	3.36884
47.0838	-0.577698	3.36853
48.0838	-0.535278	3.36975
49.0838	-0.552368	3.36945
50.0838	-0.509033	3.38837
51.0838	-0.534668	3.34991
52.0838	-0.520325	3.3493
53.0838	0.462952	3.38745
54.0838	3.39813	3.36823
55.0838	3.97339	3.36853
56.0838	1.60095	3.34869
57.0838	2.38007	3.34839
58.0838	1.87653	3.34869
59.0838	1.66229	2.28912
60.0838	1.68823	3.07587
61.0838	1.52435	3.07495
62.0838	1.90002	3.0954
63.0838	2.96021	3.09448
64.0838	3.07739	3.1134
65.0838	2.84637	3.21198
66.0838	3.99963	3.05603
67.0838	4.70093	3.05542
68.0838	4.98566	3.09357
69.0838	4.21417	3.03558
70.0838	4.02771	3.01605
71.0838	2.77649	3.05573
72.0838	2.22961	2.99744
73.0838	2.29797	3.0365
74.0838	1.96045	2.99744
75.0838	1.71722	2.95776
76.0838	1.57471	2.97821
77.0838	1.66412	3.03619
78.0838	1.47919	3.0368
79.0838	1.81519	2.99683
80.0838	0.577698	3.15277
81.0838	7.60223	3.15216
82.0838	7.08649	3.09418
83.0838	-0.895996	3.11493
84.0838	4.3924	3.09479
85.0838	2.89185	3.11371
86.0838	1.94397	3.07495
87.0838	0.857239	3.11401
88.0838	1.33087	3.13416
89.0838	0.979919	3.13446
90.0838	0.9198	3.11371
91.0838	0.0161133	3.11432
92.0838	0.0505371	3.11401
93.0838	0.621033	3.09448
94.0838	10	3.09174
95.0838	10	3.11127
96.0838	9.18182	3.09326
97.0838	6.70044	3.07404
98.0838	4.29138	3.09387
99.0838	4.08936	3.09387
100.084	4.23065	3.09448
101.084	3.84521	3.07556
102.084	3.48206	3.05573
103.084	2.46002	3.07495
104.084	2.79327	3.03558
105.084	2.66724	3.07556
106.084	4.90082	3.07495
107.084	-1.64124	3.07678
108.084	-8.01392	3.07617
109.084	9.12354	3.09296
110.084	6.45172	3.0542
111.084	5.57861	3.05573
112.084	6.86859	3.05511
113.084	7.88666	3.07343
114.084	7.42096	3.0545
115.084	10	3.07312
116.084	10	3.05298
117.084	9.87732	3.07343
118.084	9.7464	3.03558
119.084	6.75568	3.07373
120.084	4.70642	3.07404
121.084	4.49768	3.07465
122.084	4.44397	3.07465
123.084	4.10309	3.09387
124.084	3.78082	3.09479
125.084	3.22876	3.1131
126.084	2.85614	3.09418
127.084	5.33173	3.13354
128.084	-1.54938	3.09601
129.084	-5.20386	3.13446
130.084	-7.31537	3.09662
131.084	-4.96094	3.03772
132.084	-3.45825	3.05634
133.084	-4.28192	3.05603
134.084	-1.82526	3.07617
135.084	-2.91351	3.07526
136.084	7.05597	3.07465
137.084	10	3.09265
138.084	8.927	3.05359
139.084	5.12573	3.05481
140.084	4.48059	3.09387
141.084	4.78973	3.13171
142.084	4.17511	3.1131
143.084	3.79639	3.11432
144.084	3.45886	3.13263
145.084	3.15613	3.13354
146.084	2.93121	3.13354
147.084	2.51587	3.11371
148.084	5.43335	3.11371
149.084	-0.281067	3.0954
150.084	-6.20422	3.07617
151.084	-4.3222	3.07587
152.084	-1.64368	3.07617
153.084	-3.5907	3.03802
154.084	-2.47284	3.05634
155.084	10	3.09143
156.084	9.39972	3.07373
157.084	7.66388	3.07343
158.084	6.66382	3.09296
159.084	5.84167	3.07495
160.084	5.27161	3.07404
161.084	2.67426	3.05603
162.084	2.42859	3.11371
163.084	2.901	3.13293
164.084	2.7298	3.1134
165.084	2.49237	3.11493
166.084	2.27264	3.11401
167.084	-0.709229	3.0957
168.084	-3.08838	3.0954
169.084	-0.260406	3.13324
170.084	-0.207642	3.0954
171.084	-3.08075	3.07556
172.084	-3.68835	3.11493
173.084	-3.45093	3.11493
174.084	-1.19385	3.11432
175.084	-1.28784	3.09479
176.084	-0.339355	3.15308
177.084	-0.0907898	3.17291
178.084	0.263855	3.19275
179.084	-0.646362	3.19244
180.084	-0.892334	3.17352
181.084	-1.79199	3.19305
182.084	-2.64526	3.19305
183.084	3.00446	3.1134
184.084	-0.522461	3.19275
185.084	3.17047	3.03619
186.084	10	3.34595
187.084	10	3.36578
188.084	9.57672	3.34656
189.084	8.29254	3.36609
190.084	7.3233	3.34808
191.084	6.47736	3.34717
192.084	5.24994	3.34717
193.084	4.10767	3.36731
194.084	5.24994	3.38745
195.084	4.69238	3.34747
196.084	4.21417	3.34747
197.084	3.82294	3.36731
198.084	3.47839	3.36792
199.084	3.1897	3.36731
200.084	2.91016	3.36884
201.084	2.67639	3.36823
202.084	2.4704	3.38776
203.084	2.22931	3.34961
204.084	1.68579	3.36761
205.084	-1.33331	3.36823
206.084	-3.11798	3.36975
207.084	-6.25946	2.58789
208.084	-7.04163	3.13416
209.084	-5.34271	3.15369
210.084	-3.862	3.03772
211.084	-1.80542	3.01727
212.084	-3.90106	3.01788
213.084	-1.82281	2.97699
214.084	0.810852	3.11462
215.084	0.141907	3.21167
216.084	0.00332642	3.15399
217.084	-0.0276489	3.13354
218.084	-0.169006	3.15338
219.084	-0.256653	3.11371
220.084	-0.201416	3.11523
221.084	-0.0716858	3.07648
222.084	-0.490112	3.0957
223.084	0.0851135	3.05634
224.084	0.122742	3.05634
225.084	-0.0202637	3.03589
226.084	0.779724	3.05664
227.084	-2.78595	3.0188
228.084	0.087616	3.0368
229.084	0.105743	3.05664
230.084	0.105774	3.09509
231.084	0.105835	3.13385
232.084	0.105896	3.13446
233.084	0.105957	3.15308
234.084	0.106018	3.15399
235.084	0.106049	3.17413
236.084	0.10611	3.17322
237.084	0.106171	3.17291
238.084	0.106201	3.1723
239.084	0.106262	3.15247
240.084	0.106323	3.15277
241.084	0.106415	3.17383
242.084	0.106445	3.1723
243.084	0.106506	3.17291
244.084	0.106567	3.17383
245.084	0.106598	3.1723
246.084	0.106659	3.17291
247.084	0.10672	3.17352
248.084	0.10675	3.15369
249.084	0.106812	3.17322
250.084	0.106842	3.17352
251.084	0.106903	3.17352
252.084	0.106934	3.17352
253.084	0.106995	3.15338
254.084	0.107056	3.17261
255.084	0.107086	3.17413
256.084	0.107147	3.15369
257.084	0.107178	3.15277
258.084	0.107239	3.15216
259.084	0.1073	3.13446
260.084	0.107361	3.15247
261.084	0.107391	3.15247
262.084	0.107422	3.17383
263.084	0.107483	3.13354
264.084	0.107513	3.13416
265.084	0.107544	3.13446
266.084	0.107605	3.13416
267.084	0.107635	3.13416
268.084	0.107697	3.15338
269.084	0.107727	3.13477
270.084	0.107758	3.13324
271.084	0.107819	3.11554
272.084	0.10788	3.13416
273.084	0.10788	3.13416
274.084	0.107941	3.15277
275.084	0.107971	3.15369
276.084	0.108032	3.13446
277.084	0.108063	3.13354
278.084	0.108093	3.13354
279.084	0.108154	3.11493
280.084	0.108215	3.15399
281.084	0.108246	3.15277
282.084	0.108276	3.13324
283.084	0.108337	3.13324
284.084	0.108398	3.13416
285.084	0.108429	3.11462
286.084	0.108459	3.13446
287.084	0.108521	3.13446
288.084	0.108551	3.13446
289.084	0.108582	3.13385
290.084	0.108643	3.11432
291.084	0.108673	3.13446
292.084	0.108734	3.1134
293.084	0.108765	3.13446
294.084	0.108795	3.11401
295.084	0.108826	3.11523
296.084	0.108887	3.11432
297.084	0.108917	3.11462
298.084	0.108948	3.11432
299.084	0.109009	3.09601
300.084	0.109039	3.13385
301.084	0.10907	3.09509
302.084	0.109131	3.11462

File: OCP_1
Time (s)	WE(1).Potential (V)	External(1).External 2 (V)
303.494	0.109161	3.11462
304.494	0.109222	3.11462
305.494	0.109253	3.11493
306.494	0.109283	3.13416
307.494	0.109344	3.11462
308.494	0.109375	3.13416
309.494	0.109406	3.11554
310.494	0.109436	3.11462
311.494	0.109497	3.11432
312.494	0.109528	3.11493
313.494	0.109558	3.13446
314.494	0.109589	3.11493
315.494	0.109619	3.11493
316.494	0.10965	3.11493
317.494	0.109711	3.11401
318.494	0.109741	3.11493
319.494	0.109772	3.11523
320.494	0.109833	3.13324
321.494	0.109863	3.09509
322.494	0.109894	3.13385
323.494	0.109924	3.11432
324.494	0.109955	3.11432
325.494	0.110016	3.11462
326.494	0.110046	3.09509
327.494	0.110107	3.11401
328.494	0.110168	3.11462
329.494	0.110199	3.0954
330.494	0.110229	3.11523
331.494	0.110291	3.11432
332.494	0.110321	3.11462
333.494	0.110352	3.11432
334.494	0.110382	3.11401
335.494	0.110443	3.11462
336.494	0.110474	3.11462
337.494	0.110535	3.11523
338.494	0.110565	3.13446
339.494	0.110596	0.0501404
340.494	0.110657	0.0500488
341.494	0.110687	0.0501404
342.494	0.110748	0.0498962
343.494	0.110748	0.0500793
344.494	0.110809	0.0499878
345.494	0.11084	0.0500488
346.494	0.11087	0.0498047
347.494	0.110901	0.0500488
348.494	0.110931	0.0501099
349.494	0.110992	0.0499573
350.494	0.111023	2.52228
351.494	0.111084	3.13416
352.494	0.111115	3.11432
353.494	0.111145	3.11401
354.494	0.111176	3.09418
355.494	0.111206	3.11432
356.494	0.111267	3.11401
357.494	0.111328	3.0954
358.494	0.111328	3.09601
359.494	0.111389	3.11371
360.494	0.11142	3.11462
361.494	0.11142	3.09448
362.494	0.111481	3.09448
363.494	0.111511	3.09509
364.494	0.111542	3.09418
365.494	0.111572	3.09479
366.494	0.111633	3.11462
367.494	0.111664	3.09479
368.494	0.111694	3.0954
369.494	0.111725	3.09448
370.494	0.111786	3.11432
371.494	0.111816	3.13354
372.494	0.111847	3.11493
373.494	0.111877	3.09448
374.494	0.111938	3.11523
375.494	0.111969	3.11462
376.494	0.112	3.11371
377.494	0.11203	3.0957
378.494	0.112061	3.13293
379.494	0.112091	3.11401
380.494	0.112152	3.11432
381.494	0.112183	3.0954
382.494	0.112213	3.13385
383.494	0.112244	3.11432
384.494	0.112274	3.11432
385.494	0.112305	3.11371
386.494	0.112366	3.11432
387.494	0.112396	3.11401
388.494	0.112457	3.11493
389.494	0.112457	3.11401
390.494	0.112488	3.09448
391.494	0.112518	3.11401
392.494	0.112579	3.11462
393.494	0.11261	3.11401
394.494	0.11264	3.09479
395.494	0.112671	3.09448
396.494	0.112701	3.09479
397.494	0.112732	3.11462
398.494	0.112732	3.1134
399.494	0.112793	3.11401
400.494	0.112823	3.1131
401.494	0.112854	3.09448
402.494	0.112885	3.11401
403.494	0.112915	3.11371
404.494	0.112976	3.0957
405.494	0.113007	3.11401
406.494	0.113007	3.09479
407.494	0.113068	3.11432
408.494	0.113068	3.11371
409.494	0.113129	3.07556
410.494	0.113129	3.09479
411.494	0.11319	3.0957
412.494	0.11319	3.1134
413.494	0.11322	3.09479
414.494	0.113251	3.11401
415.494	0.113312	3.11493
416.494	0.113342	3.09418
417.494	0.113403	3.1134
418.494	0.113403	3.09418
419.494	0.113464	3.09479
420.494	0.113495	3.09448
421.494	0.113525	3.09448
422.494	0.113586	3.0954

File: OCP_3
Time (s)	WE(1).Potential (V)	External(1).External 2 (V)
2898.22	0.0570068	2.80151
2899.22	0.0484406	2.82013
2900.22	0.0422424	2.80151
2901.22	0.0372528	2.82074
2902.22	0.0330475	2.8009
2903.22	0.0293793	2.78198
2904.22	0.0261383	2.80151
2905.22	0.0232239	2.82043
2906.22	0.020578	2.80151
2907.22	0.018161	2.82043
2908.22	0.0159332	2.80121
2909.22	0.0138702	2.81921
2910.22	0.0119812	2.8009
2911.22	0.0101959	2.80121
2912.22	0.00853577	2.82043
2913.22	0.00696106	2.80151
2914.22	0.00549316	2.80029
2915.22	0.00410767	2.80121
2916.22	0.0027832	2.80029
2917.22	0.0015564	2.80029
2918.22	0.000387573	2.80121
2919.22	-0.000726318	2.78198
2920.22	-0.00178833	2.80121
2921.22	-0.00279236	2.80121
2922.22	-0.0037384	2.80121
2923.22	-0.00464783	2.78168
2924.22	-0.00552063	2.79999
2925.22	-0.00636597	2.78198
2926.22	-0.00716858	2.80182
2927.22	-0.00793457	2.80151
2928.22	-0.00866089	2.80121
2929.22	-0.00936279	2.80121
2930.22	-0.0100555	2.8006
2931.22	-0.0106873	2.80151
2932.22	-0.0112976	2.80151
2933.22	-0.0118866	2.80151
2934.22	-0.0124603	2.80151
2935.22	-0.0130066	2.78107
2936.22	-0.0135223	2.80151
2937.22	-0.0140472	2.78229
2938.22	-0.0145172	2.78229
2939.22	-0.0149719	2.80121
2940.22	-0.0154266	2.80121
2941.22	-0.0158661	2.78198
2942.22	-0.0162842	2.8009
2943.22	-0.016684	2.78168
2944.22	-0.0170807	2.8006
2945.22	-0.0174286	2.80182
2946.22	-0.0177917	2.8006
2947.22	-0.0181305	2.8006
2948.22	-0.0184753	2.78137
2949.22	-0.0187836	2.80151
2950.22	-0.019104	2.78198
2951.22	-0.0194031	2.78168
2952.22	-0.0197052	2.80121
2953.22	-0.0199829	2.78168
2954.22	-0.0202545	2.78137
2955.22	-0.0205261	2.78168
2956.22	-0.0207825	2.78107
2957.22	-0.0210266	2.78168
2958.22	-0.0212616	2.80151
2959.22	-0.0214783	2.78168
2960.22	-0.0217072	2.78137
2961.22	-0.0219177	2.76245
2962.22	-0.0221161	2.78168
2963.22	-0.0223114	2.78137
2964.22	-0.0225006	2.78168
2965.22	-0.0226868	2.78168
2966.22	-0.0228638	2.78198
2967.22	-0.0230316	2.78107
2968.22	-0.0231903	2.78198
2969.22	-0.0233368	2.78137
2970.22	-0.0234802	2.7829
2971.22	-0.0236237	2.78168
2972.22	-0.023764	2.80029
2973.22	-0.0238922	2.80151
2974.22	-0.0240112	2.78168
2975.22	-0.0241394	2.80121
2976.22	-0.0242493	2.78107
2977.22	-0.0243622	2.78076
2978.22	-0.024472	2.78168
2979.22	-0.0245819	2.79999
2980.22	-0.0246979	2.80121
2981.22	-0.0247894	2.78198
2982.22	-0.0248962	2.78168
2983.22	-0.0249756	2.78229
2984.22	-0.0250702	2.78168
2985.22	-0.0251495	2.78198
2986.22	-0.0252228	2.78137
2987.22	-0.0253052	2.78229
2988.22	-0.0253784	2.78107
2989.22	-0.0254486	2.76215
2990.22	-0.0255005	2.78229
2991.22	-0.0255676	2.76184
2992.22	-0.0256317	2.78229
2993.22	-0.0256805	2.78076
2994.22	-0.0257324	2.76276
2995.22	-0.0257843	2.79999
2996.22	-0.025827	2.80151
2997.22	-0.0258728	2.78198
2998.22	-0.0259186	2.78198
2999.22	-0.0259491	2.78168
3000.22	-0.0259796	2.78168
3001.22	-0.0260193	2.78137
3002.22	-0.0260468	2.78107
3003.22	-0.0260712	2.80121
3004.22	-0.0260925	2.78168
3005.22	-0.0261261	2.78137
3006.22	-0.0261414	2.76154
3007.22	-0.0261658	2.80121
3008.22	-0.026181	2.78229
3009.22	-0.0261871	2.78107
3010.22	-0.0262115	2.78168
3011.22	-0.0262146	2.78046
3012.22	-0.0262238	2.78198
3013.22	-0.0262177	2.8009
3014.22	-0.0262268	2.78259
3015.22	-0.0262299	2.80182
3016.22	-0.0262268	2.78198
3017.22	-0.0262238	2.76245
3018.22	-0.0262177	2.78137
3019.22	-0.0262238	2.80029
3020.22	-0.0262146	2.8006
3021.22	-0.0262207	2.80121
3022.22	-0.0262115	2.80029
3023.22	-0.0261993	2.78168
3024.22	-0.0261993	2.78168
3025.22	-0.0261993	2.78168
3026.22	-0.026178	2.78168
3027.22	-0.0261597	2.78229
3028.22	-0.0261383	2.78229
3029.22	-0.0261261	2.78229
3030.22	-0.0261017	2.78076
3031.22	-0.0260895	2.8009
3032.22	-0.0260681	2.80121
3033.22	-0.0260406	2.80151
3034.22	-0.0260193	2.80121
3035.22	-0.0259979	2.78168
3036.22	-0.0259766	2.78137
3037.22	-0.0259521	2.78137
3038.22	-0.0259308	2.8009
3039.22	-0.0259033	2.78168
3040.22	-0.0258881	2.78168
3041.22	-0.0258392	2.78168
3042.22	-0.0258179	2.78137
3043.22	-0.02578125	2.78198
3044.22	-0.0257599	2.78198
3045.22	-0.0257202	2.78076
3046.22	-0.0256866	2.78168
3047.22	-0.0256439	2.78137
3048.22	-0.0256104	2.80029
3049.22	-0.0255737	2.78076
3050.22	-0.025531	2.79877
3051.22	-0.0254791	2.78198
3052.22	-0.0254425	2.80121
3053.22	-0.0254059	2.76215
3054.22	-0.0253601	2.78168
3055.22	-0.0253296	2.78198
3056.22	-0.0252747	2.8009
3057.22	-0.0252197	2.78107
3058.22	-0.025174	2.78168
3059.22	-0.0251312	2.80151
3060.22	-0.0250854	2.8006
3061.22	-0.0250336	2.78198
3062.22	-0.0250031	2.78168
3063.22	-0.024942	2.78168
3064.22	-0.024884	2.78107
3065.22	-0.0248322	2.78137
3066.22	-0.0247894	2.78198
3067.22	-0.0247314	2.80151
3068.22	-0.0246765	2.78198
3069.22	-0.0246216	2.78198
3070.22	-0.0245728	2.78107
3071.22	-0.024527	2.78168
3072.22	-0.0244629	2.8009
3073.22	-0.0244141	2.80151
3074.22	-0.024353	2.78229
3075.22	-0.024292	2.8009
3076.22	-0.0242279	2.78107
3077.22	-0.0241852	2.80121