Folder: electrochromicfilms/Edgar/20240529/20240529/electrodeposition_pulsed_potential_20240529_A

File: OCP_1
Time (s)	WE(1).Potential (V)
3.49677	0.521851
4.49677	0.521851
5.49677	0.521851
6.49677	0.522156
7.49677	0.522156
8.49677	0.522156
9.49677	0.522156
10.4968	0.522156
11.4968	0.522156
12.4968	0.522461
13.4968	0.522461
14.4968	0.522461
15.4968	0.522461
16.4968	0.522461
17.4968	0.522461
18.4968	0.522766
19.4968	0.522766
20.4968	0.522766
21.4968	0.522766
22.4968	0.522766
23.4968	0.522766
24.4968	0.522766
25.4968	0.523071
26.4968	0.523071
27.4968	0.523071
28.4968	0.523071
29.4968	0.523071
30.4968	0.523071
31.4968	0.523376
32.4968	0.523376
33.4968	0.523376
34.4968	0.523376
35.4968	0.523376
36.4968	0.523376
37.4968	0.523682
38.4968	0.523682
39.4968	0.523682
40.4968	0.523682
41.4968	0.523682
42.4968	0.523682
43.4968	0.523682
44.4968	0.523987
45.4968	0.523987
46.4968	0.523987
47.4968	0.523987
48.4968	0.523987
49.4968	0.523987
50.4968	0.524292
51.4968	0.524292
52.4968	0.524292
53.4968	0.524292
54.4968	0.524292
55.4968	0.524292
56.4968	0.524292
57.4968	0.524597
58.4968	0.524597
59.4968	0.524597
60.4968	0.524597
61.4968	0.524597
62.4968	0.524597
63.4968	0.524902
64.4968	0.524902
65.4968	0.524902
66.4968	0.524902
67.4968	0.524902
68.4968	0.524902
69.4968	0.524902
70.4968	0.525208
71.4968	0.525208
72.4968	0.525208
73.4968	0.525208
74.4968	0.525208
75.4968	0.525208
76.4968	0.525208
77.4968	0.525513
78.4968	0.525513
79.4968	0.525513
80.4968	0.525513
81.4968	0.525513
82.4968	0.525513
83.4968	0.525513
84.4968	0.525818
85.4968	0.525818
86.4968	0.525818
87.4968	0.525818
88.4968	0.525818
89.4968	0.525818
90.4968	0.526123
91.4968	0.526123
92.4968	0.526123
93.4968	0.526123
94.4968	0.526123
95.4968	0.526123
96.4968	0.526123
97.4968	0.526428
98.4968	0.526428
99.4968	0.526428
100.497	0.526428
101.497	0.526428
102.497	0.526428
103.497	0.526428
104.497	0.526428
105.497	0.526428
106.497	0.526428
107.497	0.526428
108.497	0.526428
109.497	0.526428
110.497	0.526428
111.497	0.526428
112.497	0.526428
113.497	0.526428
114.497	0.526428
115.497	0.526428
116.497	0.526428
117.497	0.526428
118.497	0.526428
119.497	0.526428
120.497	0.526428
121.497	0.526733
122.497	0.526733
123.497	0.526733
124.497	0.526733
125.497	0.526733
126.497	0.526733
127.497	0.526733
128.497	0.527039
129.497	0.527039
130.497	0.527039
131.497	0.527039
132.497	0.527039
133.497	0.527039
134.497	0.527039
135.497	0.527039
136.497	0.527344
137.497	0.527344
138.497	0.527344
139.497	0.527344
140.497	0.527344
141.497	0.527344
142.497	0.527344
143.497	0.527344
144.497	0.527649
145.497	0.527649
146.497	0.527649
147.497	0.527649
148.497	0.527649
149.497	0.527649
150.497	0.527649
151.497	0.527649
152.497	0.527954
153.497	0.527954
154.497	0.527954
155.497	0.527954
156.497	0.527954
157.497	0.527954
158.497	0.527954
159.497	0.528259
160.497	0.528259
161.497	0.528259
162.497	0.528259
163.497	0.528259
164.497	0.528259
165.497	0.528564
166.497	0.528564
167.497	0.528564
168.497	0.528564
169.497	0.528564
170.497	0.528564
171.497	0.528564
172.497	0.52887
173.497	0.52887
174.497	0.52887
175.497	0.52887
176.497	0.52887
177.497	0.52887
178.497	0.52887
179.497	0.529175
180.497	0.529175
181.497	0.529175
182.497	0.529175

File: OCP_3
Time (s)	WE(1).Potential (V)
5476.03	0.52063
5477.03	0.513611
5478.03	0.507202
5479.03	0.502014
5480.03	0.49704
5481.03	0.493073
5482.03	0.489685
5483.03	0.486816
5484.03	0.484375
5485.03	0.48233
5486.03	0.480591
5487.03	0.479156
5488.03	0.477966
5489.03	0.476959
5490.03	0.476166
5491.03	0.475555
5492.03	0.475037
5493.03	0.47464
5494.03	0.474335
5495.03	0.474121
5496.03	0.473969
5497.03	0.473846
5498.03	0.473816
5499.03	0.473816
5500.03	0.473877
5501.03	0.473969
5502.03	0.47403
5503.03	0.474121
5504.03	0.474274
5505.03	0.474426
5506.03	0.474579
5507.03	0.474762
5508.03	0.474945
5509.03	0.475128
5510.03	0.475281
5511.03	0.475494
5512.03	0.475647
5513.03	0.4758
5514.03	0.475952
5515.03	0.476044
5516.03	0.476166
5517.03	0.476288
5518.03	0.47644
5519.03	0.4765625
5520.03	0.476715
5521.03	0.476898
5522.03	0.477051
5523.03	0.477203
5524.03	0.477325
5525.03	0.477448
5526.03	0.4776
5527.03	0.477753
5528.03	0.477936
5529.03	0.478088
5530.03	0.47818
5531.03	0.478302
5532.03	0.478455
5533.03	0.478577
5534.03	0.478699
5535.03	0.47879
5536.03	0.478912
5537.03	0.478973
5538.03	0.479065
5539.03	0.479156
5540.03	0.479218
5541.03	0.479279
5542.03	0.479401
5543.03	0.479492
5544.03	0.479706
5545.03	0.480621
5546.03	0.481964
5547.03	0.483124
5548.03	0.484283
5549.03	0.485352
5550.03	0.486115
5551.03	0.486176
5552.03	0.485809
5553.03	0.485443
5554.03	0.485107
5555.03	0.484802
5556.03	0.484528
5557.03	0.484314
5558.03	0.48407
5559.03	0.483856
5560.03	0.483734
5561.03	0.483582
5562.03	0.483398
5563.03	0.483246
5564.03	0.483093
5565.03	0.482971
5566.03	0.48288
5567.03	0.482788
5568.03	0.482697
5569.03	0.482666
5570.03	0.482635
5571.03	0.482666
5572.03	0.482635
5573.03	0.482605
5574.03	0.482574
5575.03	0.482574
5576.03	0.482544
5577.03	0.482513
5578.03	0.482513
5579.03	0.482513
5580.03	0.482483
5581.03	0.482513
5582.03	0.482513
5583.03	0.482544
5584.03	0.482544
5585.03	0.482544
5586.03	0.482544
5587.03	0.482544
5588.03	0.482574
5589.03	0.482574
5590.03	0.482574
5591.03	0.482574
5592.03	0.482544
5593.03	0.482574
5594.03	0.482635
5595.03	0.482666
5596.03	0.482697
5597.03	0.482727
5598.03	0.482758
5599.03	0.482788
5600.03	0.482819
5601.03	0.48288
5602.03	0.48291
5603.03	0.482971
5604.03	0.483032
5605.03	0.483063
5606.03	0.483093
5607.03	0.483124
5608.03	0.483124
5609.03	0.483124
5610.03	0.483154
5611.03	0.483185
5612.03	0.483215
5613.03	0.483215
5614.03	0.483246
5615.03	0.483307
5616.03	0.483337
5617.03	0.483368
5618.03	0.483368
5619.03	0.483337
5620.03	0.483337
5621.03	0.483337
5622.03	0.483368
5623.03	0.483398
5624.03	0.483398
5625.03	0.483398
5626.03	0.483398
5627.03	0.483368
5628.03	0.483368
5629.03	0.483398
5630.03	0.483398
5631.03	0.483459
5632.03	0.483521
5633.03	0.483551
5634.03	0.483551
5635.03	0.483551
5636.03	0.483582
5637.03	0.483582
5638.03	0.483612
5639.03	0.483643
5640.03	0.483673
5641.03	0.483704
5642.03	0.483765
5643.03	0.483826
5644.03	0.483856
5645.03	0.483948
5646.03	0.483978
5647.03	0.484009
5648.03	0.484039
5649.03	0.484039
5650.03	0.48407
5651.03	0.4841
5652.03	0.4841
5653.03	0.484131
5654.03	0.484131
5655.03	0.484131

File: pulses_0_to_1000.txt
Time (s)	WE(1).Potential (V)	WE(1).Current (A)
183.233	-0.699768	-0.00219788
187.593	0.528412	2.89917e-06
191.913	0.529724	-7.35474e-06
196.253	-0.700287	-0.0017691
200.613	0.528381	5.34058e-06
204.933	0.529602	-4.5166e-06
209.273	-0.698853	-0.00194244
213.633	0.529663	2.38037e-06
217.953	0.529633	-3.44849e-06
222.293	-0.699432	-0.00218842
226.653	0.529205	3.41797e-06
230.973	0.528107	8.45337e-06
235.333	-0.000259399	0.000645447
239.673	0.528076	1.40381e-05
243.993	0.529846	-2.34985e-06
248.353	-0.000628662	0.000199158
252.693	0.529388	6.19507e-06
257.013	0.528748	1.67847e-06
261.373	0.000915527	8.76465e-05
265.713	0.529297	3.63159e-06
270.033	0.529572	-2.28882e-06
274.393	0.000683594	4.27246e-05
278.733	0.528412	8.42285e-06
283.053	0.529724	-3.96729e-06
287.433	0.527924	0.00013797
291.753	0.529419	1.0376e-06
296.073	0.528107	4.02832e-06
300.453	0.529419	5.82581e-05
304.773	0.528961	2.83813e-06
309.093	0.529236	-2.96021e-06
313.473	0.52832	4.2572e-05
317.793	0.528473	4.94385e-06
322.113	0.528381	3.8147e-06
326.493	0.528656	2.89001e-05
330.813	0.527832	8.27026e-06
335.133	0.527985	5.79834e-06
339.513	0.528351	2.34375e-05
343.833	0.52832	4.54712e-06
348.153	0.529297	-3.87573e-06
352.533	0.52948	1.08948e-05
356.853	0.528442	5.06592e-06
361.173	0.527954	5.09644e-06
365.553	0.529205	9.91821e-06
369.873	0.529541	-5.0354e-06
374.193	0.528473	1.64795e-06
378.573	0.529114	5.43213e-06
382.893	0.527985	6.98853e-06
387.213	0.529694	-7.17163e-06
391.593	0.529755	2.47192e-06
395.913	0.528687	7.93457e-07
400.233	0.528931	-2.41089e-06
404.613	0.527863	1.297e-05
408.933	0.529572	-2.96021e-06
413.253	0.528351	2.13623e-06
417.633	0.528687	5.98145e-06
421.953	0.528351	3.08228e-06
426.273	0.528107	-9.15527e-08
430.653	0.528015	1.04065e-05
434.973	0.529266	-3.60107e-06
439.293	0.527924	5.40161e-06
443.673	0.529602	1.86157e-06
447.993	0.529022	-4.85229e-06
452.333	-0.698425	-0.00996704
456.693	0.528381	6.04248e-06
461.013	0.528992	7.01904e-07
465.353	-0.699432	-0.00654053
469.713	0.528076	8.75854e-06
474.033	0.527893	5.00488e-06
478.373	-0.698395	-0.00510559
482.733	0.528076	1.01929e-05
487.053	0.527893	6.073e-06
491.393	-0.698914	-0.00435333
495.753	0.529449	-1.28174e-06
500.073	0.528931	-3.84521e-06
504.433	0.000750732	0.00858154
508.773	0.529144	6.10352e-08
513.093	0.52829	3.26538e-06
517.453	0.00057373	0.00391022
521.793	0.528046	6.71387e-06
526.113	0.528107	6.28662e-06
530.473	0.000418091	0.0012912
534.813	0.52832	6.89697e-06
539.133	0.529694	-6.50024e-06
543.493	0.000506592	0.000375061
547.833	0.528503	3.60107e-06
552.153	0.527863	7.59888e-06
556.533	0.528198	0.000242523
560.853	0.527954	8.42285e-06
565.173	0.528229	4.79126e-06
569.553	0.528015	9.2041e-05
573.873	0.528107	8.23975e-06
578.193	0.528809	-3.05176e-06
582.573	0.528503	5.26123e-05
586.893	0.529694	-5.00488e-06
591.213	0.528656	1.49536e-06
595.593	0.528625	3.55835e-05
599.913	0.528442	4.27246e-06
604.233	0.529297	-4.18091e-06
608.613	0.527924	3.35388e-05
612.933	0.529785	-4.02832e-06
617.253	0.528412	5.43213e-06
621.633	0.528015	2.66113e-05
625.953	0.529053	-6.71387e-07
630.273	0.528931	-2.59399e-06
634.653	0.529572	1.24512e-05
638.973	0.529236	-3.05176e-06
643.293	0.529694	-5.70679e-06
647.673	0.528259	1.96533e-05
651.993	0.52887	2.44141e-07
656.313	0.527832	5.70679e-06
660.693	0.527863	1.79138e-05
665.013	0.528503	4.08936e-06
669.333	0.52887	-1.25122e-06
673.713	0.529266	7.96509e-06
678.033	0.528137	5.27954e-06
682.353	0.527954	3.32642e-06
686.733	0.528961	1.11389e-05
691.053	0.529144	-2.41089e-06
695.373	0.529114	-2.7771e-06
699.753	0.527954	1.54419e-05
704.073	0.529236	-2.68555e-06
708.393	0.528778	-6.71387e-07
712.773	0.527985	1.34888e-05
717.093	0.529053	1.15967e-06
721.433	-0.699463	-0.012561
725.793	0.529144	3.93677e-06
730.113	0.529572	-4.69971e-06
734.453	-0.699829	-0.00845947
738.813	0.528198	1.18408e-05
743.133	0.529419	-2.53296e-06
747.473	-0.699646	-0.00648315
751.833	0.528046	1.12305e-05
756.153	0.527985	5.37109e-06
760.493	-0.698273	-0.00540161
764.853	0.529724	-5.79834e-07
769.173	0.527863	4.79126e-06
773.533	0.000793457	0.0098877
777.873	0.529663	2.44141e-07
782.193	0.529358	-2.89917e-06
786.553	0.000970459	0.00570892
790.894	0.528656	3.84521e-06
795.214	0.527893	6.89697e-06
799.574	-2.13623e-05	0.00295349
803.914	0.529053	4.42505e-06
808.234	0.529785	-6.50024e-06
812.594	-3.05176e-05	0.00129242
816.934	0.528748	4.54712e-06
821.254	0.527832	8.3313e-06
825.634	0.529724	0.000416565
829.954	0.528503	6.40869e-06
834.274	0.528107	6.83594e-06
838.654	0.5289	0.000137512
842.974	0.52948	-2.7771e-06
847.294	0.529724	-4.42505e-06
851.674	0.528015	8.24585e-05
855.994	0.528137	9.18579e-06
860.314	0.529602	-5.34058e-06
864.694	0.529602	4.71191e-05
869.014	0.527893	1.04065e-05
873.334	0.529755	-5.06592e-06
877.714	0.529541	3.48816e-05
882.034	0.528564	5.52368e-06
886.354	0.528687	2.53296e-06
890.734	0.528168	3.7323e-05
895.054	0.527893	9.97925e-06
899.374	0.529083	-2.44141e-06
903.754	0.529053	2.44751e-05
908.074	0.528839	2.86865e-06
912.394	0.528534	1.25122e-06
916.774	0.529022	1.99585e-05
921.094	0.528595	5.46265e-06
925.414	0.529236	-4.11987e-06
929.794	0.528473	2.2644e-05
934.114	0.528351	6.37817e-06
938.434	0.529358	-3.87573e-06
942.814	0.528931	1.6449e-05
947.134	0.529175	2.19727e-06
951.454	0.529419	-3.66211e-06
955.834	0.528015	1.99585e-05
960.154	0.528076	7.35474e-06
964.474	0.52951	-5.43213e-06
968.854	0.5289	1.51978e-05
973.174	0.529175	-1.2207e-07
977.494	0.529602	-3.84521e-06
981.874	0.528168	1.56555e-05
986.194	0.528046	4.36401e-06
990.534	-0.698792	-0.0141388
994.894	0.529266	7.8125e-06
999.214	0.528809	-4.27246e-07
1003.55	-0.698975	-0.00974121
1007.91	0.52887	8.88062e-06
1012.23	0.529053	-1.95313e-06
1016.57	-0.698517	-0.00748108
1020.93	0.529175	7.50732e-06
1025.25	0.528809	3.11279e-06
1029.59	-0.699005	-0.006171875
1033.95	0.528564	1.06201e-05
1038.27	0.52948	-2.96021e-06
1042.63	-0.000595093	0.0104095
1046.97	0.528778	7.35474e-06
1051.29	0.529449	-2.22778e-06
1055.65	0.000421143	0.00647736
1059.99	0.52951	2.22778e-06
1064.31	0.528229	6.74438e-06
1068.67	0.00110779	0.00389893
1073.01	0.528168	1.23291e-05
1077.33	0.527985	8.5144e-06
1081.69	9.76562e-05	0.00208008
1086.03	0.529602	4.60815e-06
1090.35	0.529388	-1.89209e-06
1094.73	0.529205	0.000707397
1099.05	0.529449	3.14331e-06
1103.37	0.528015	6.83594e-06
1107.75	0.529633	0.000180725
1112.07	0.527985	1.26648e-05
1116.39	0.527863	7.14111e-06
1120.77	0.529297	9.95483e-05
1125.09	0.528198	1.2085e-05
1129.41	0.529266	-1.28174e-06
1133.79	0.529388	6.63147e-05
1138.11	0.529419	0
1142.43	0.528717	1.5564e-06
1146.81	0.527954	5.63354e-05
1151.13	0.529694	-9.15527e-08
1155.45	0.528748	4.88281e-07
1159.83	0.527954	4.84314e-05
1164.15	0.529388	-3.05176e-08
1168.47	0.528687	4.57764e-06
1172.85	0.527893	3.97644e-05
1177.17	0.528137	9.64355e-06
1181.49	0.528107	7.62939e-06
1185.87	0.528931	2.87476e-05
1190.19	0.527832	9.73511e-06
1194.51	0.527924	7.44629e-06
1198.89	0.52887	2.49023e-05
1203.21	0.529816	-2.7771e-06
1207.53	0.529694	-3.9978e-06
1211.91	0.529633	1.52283e-05
1216.23	0.528656	4.73022e-06
1220.55	0.528168	4.5166e-06
1224.93	0.527954	2.41089e-05
1229.25	0.529633	-2.44141e-06
1233.57	0.528961	8.8501e-07
1237.95	0.528015	2.02637e-05
1242.27	0.527893	8.60596e-06
1246.59	0.529694	-4.85229e-06
1250.97	0.529572	9.00269e-06
1255.29	0.527954	8.75854e-06
1259.63	-0.699432	-0.0152618
1263.99	0.529633	7.53784e-06
1268.31	0.528503	6.95801e-06
1272.65	-0.699463	-0.0107971
1277.01	0.527954	1.9104e-05
1281.33	0.527985	8.72803e-06
1285.67	-0.69873	-0.0083374
1290.03	0.52948	1.01929e-05
1294.35	0.528381	5.40161e-06
1298.69	-0.698364	-0.0068689
1303.05	0.528687	1.32141e-05
1307.37	0.529358	-1.46484e-06
1311.73	-0.000396729	0.0106171
1316.07	0.528168	1.31531e-05
1320.39	0.528137	7.90405e-06
1324.75	-0.000241089	0.00690857
1329.09	0.528564	1.33057e-05
1333.41	0.529175	-6.10352e-08
1337.77	0.000970459	0.00447479
1342.11	0.528046	1.46484e-05
1346.43	0.52951	-2.71606e-06
1350.79	-0.000305176	0.00265411
1355.13	0.528717	9.82666e-06
1359.45	0.528931	5.49316e-07
1363.83	0.528473	0.00134186
1368.15	0.529419	4.60815e-06
1372.47	0.529663	-2.38037e-06
1376.85	0.529694	0.000247101
1381.17	0.528076	1.26953e-05
1385.49	0.528107	6.28662e-06
1389.87	0.528748	0.000126831
1394.19	0.529053	1.00098e-05
1398.51	0.528748	-1.2207e-07
1402.89	0.527924	9.13391e-05
1407.21	0.528198	1.3031e-05
1411.53	0.529755	-3.9978e-06
1415.91	0.529541	5.79529e-05
1420.23	0.528076	1.14441e-05
1424.55	0.529419	7.01904e-07
1428.93	0.527985	5.69153e-05
1433.25	0.527954	1.14136e-05
1437.57	0.529724	-2.65503e-06
1441.95	0.528961	3.89709e-05
1446.27	0.529419	8.54492e-07
1450.59	0.528564	4.85229e-06
1454.97	0.528839	3.51868e-05
1459.29	0.527954	1.28174e-05
1463.61	0.528778	-1.52588e-07
1467.99	0.528046	3.51562e-05
1472.31	0.529663	-2.28882e-06
1476.63	0.527954	8.08716e-06
1481.01	0.528168	3.42712e-05
1483.19	0.529053	-1.58691e-06

File: pulses_1000_to_2000.txt
Time (s)	WE(1).Potential (V)	WE(1).Current (A)
1506.52	-0.698456	-0.0163269
1510.88	0.529053	1.40991e-05
1515.2	0.529724	-1.98364e-06
1519.54	-0.697998	-0.0116577
1523.9	0.529266	1.26648e-05
1528.22	0.527985	1.00098e-05
1532.56	-0.698212	-0.00904236
1536.92	0.528229	1.90125e-05
1541.24	0.529114	-1.12915e-06
1545.58	-0.698059	-0.00744629
1549.94	0.528748	1.58691e-05
1554.26	0.529755	-3.11279e-06
1558.62	-0.000119019	0.0106781
1562.96	0.529724	6.19507e-06
1567.28	0.527954	9.46045e-06
1571.64	0.000915527	0.00715576
1575.98	0.529083	1.02539e-05
1580.3	0.528351	5.43213e-06
1584.66	-0.000222778	0.00484802
1589	0.528778	1.38855e-05
1593.32	0.527985	8.69751e-06
1597.68	0.00100098	0.00306427
1602.02	0.528564	1.34277e-05
1606.34	0.529633	-4.08936e-06
1610.72	0.528778	0.00323822
1615.04	0.529663	3.93677e-06
1619.36	0.529297	-2.80762e-06
1623.74	0.527863	0.000337341
1628.06	0.529541	4.3335e-06
1632.38	0.529694	-2.44141e-06
1636.76	0.527985	0.000163849
1641.08	0.529663	2.99072e-06
1645.4	0.527954	6.68335e-06
1649.78	0.529175	0.000102051
1654.1	0.528778	7.47681e-06
1658.42	0.52951	-1.15967e-06
1662.8	0.528076	8.00476e-05
1667.12	0.52948	2.50244e-06
1671.44	0.529724	-4.42505e-06
1675.82	0.529602	5.18188e-05
1680.14	0.528107	1.20239e-05
1684.46	0.528748	1.09863e-06
1688.84	0.528442	5.02014e-05
1693.16	0.529205	3.69263e-06
1697.48	0.528931	4.27246e-06
1701.86	0.527985	4.80652e-05
1706.18	0.528229	9.12476e-06
1710.5	0.529724	-3.11279e-06
1714.88	0.528381	3.89099e-05
1719.2	0.528839	5.88989e-06
1723.52	0.529449	-4.05884e-06
1727.9	0.528534	3.52783e-05
1732.22	0.528961	3.26538e-06
1736.54	0.527924	7.99561e-06
1740.92	0.529541	2.24609e-05
1745.24	0.528595	6.37817e-06
1749.56	0.528107	7.17163e-06
1753.94	0.529694	1.77002e-05
1758.26	0.527924	1.11084e-05
1762.58	0.529449	-2.10571e-06
1766.96	0.529694	1.61438e-05
1771.28	0.529572	6.10352e-08
1775.62	-0.699341	-0.0170227
1779.98	0.528595	2.21558e-05
1784.3	0.529541	-1.28174e-06
1788.64	-0.697876	-0.0125641
1793	0.529388	1.31226e-05
1797.32	0.529358	6.40869e-07
1801.66	-0.699463	-0.00982666
1806.02	0.529541	1.2085e-05
1810.34	0.528137	9.3689e-06
1814.68	-0.698822	-0.00810242
1819.04	0.528473	1.69678e-05
1823.36	0.527893	1.07727e-05
1827.72	-0.000738525	0.01073
1832.06	0.527924	2.06299e-05
1836.38	0.529083	2.56348e-06
1840.74	-0.000476074	0.00739349
1845.08	0.528564	1.54114e-05
1849.4	0.529633	1.00708e-06
1853.76	-0.000436401	0.00517609
1858.1	0.529633	7.47681e-06
1862.42	0.528412	8.23975e-06
1866.78	-0.000256348	0.00346588
1871.12	0.529694	4.85229e-06
1875.44	0.529724	-2.99072e-06
1879.82	0.529205	0.00844421
1884.14	0.527985	1.75171e-05
1888.46	0.529175	-9.46045e-07
1892.84	0.528992	0.00046521
1897.16	0.529602	4.08936e-06
1901.48	0.529663	-3.2959e-06
1905.86	0.529083	0.000196411
1910.18	0.52887	8.05664e-06
1914.5	0.529419	-7.62939e-07
1918.88	0.529724	0.000115784
1923.2	0.529724	3.23486e-06
1927.52	0.528473	4.42505e-06
1931.9	0.527985	9.35364e-05
1936.22	0.527924	1.40991e-05
1940.54	0.52951	1.19019e-06
1944.92	0.528839	6.45752e-05
1949.24	0.529114	5.7373e-06
1953.56	0.528137	6.13403e-06
1957.94	0.528625	5.59998e-05
1962.26	0.528198	1.13525e-05
1966.58	0.528381	3.75366e-06
1970.96	0.52829	4.99268e-05
1975.28	0.528046	1.0498e-05
1979.6	0.529419	-2.62451e-06
1983.98	0.528564	4.00085e-05
1988.3	0.529419	2.44141e-06
1992.62	0.528198	8.39233e-06
1997	0.527985	4.00391e-05
2001.32	0.528259	1.16882e-05
2005.64	0.529449	-1.2207e-06
2010.02	0.528564	2.84119e-05
2014.34	0.529175	2.44141e-06
2018.66	0.527954	9.21631e-06
2023.04	0.528137	3.09448e-05
2027.36	0.528717	5.70679e-06
2031.68	0.527924	9.33838e-06
2036.06	0.529541	2.01111e-05
2040.38	0.529785	-7.01904e-07
2044.72	-0.698212	-0.018103
2049.08	0.528503	2.24609e-05
2053.4	0.528473	8.08716e-06
2057.74	-0.697876	-0.0137115
2062.1	0.528687	2.15454e-05
2066.42	0.528076	1.1261e-05
2070.76	-0.699554	-0.0109192
2075.12	0.527985	2.46277e-05
2079.44	0.529419	-9.46045e-07
2083.78	-0.699677	-0.00907288
2088.14	0.529144	1.76392e-05
2092.46	0.527985	1.09558e-05
2096.82	0.000494385	0.0104797
2101.16	0.528168	2.13623e-05
2105.48	0.528961	3.02124e-06
2109.84	0.000897217	0.00743683
2114.18	0.529694	9.64355e-06
2118.5	0.529083	-6.10352e-07
2122.87	0.000616455	0.00538239
2127.21	0.52948	9.33838e-06
2131.53	0.528137	9.765625E-06
2135.89	0.000668335	0.00379395
2140.23	0.529297	8.75854e-06
2144.55	0.529205	2.68555e-06
2148.93	0.528137	0.0110107
2153.25	0.528717	1.12e-05
2157.57	0.529388	1.43433e-06
2161.95	0.529266	0.000870667
2166.27	0.528046	1.89209e-05
2170.59	0.529633	-2.59399e-06
2174.97	0.528168	0.00026825
2179.29	0.528503	1.0376e-05
2183.61	0.528259	6.83594e-06
2187.99	0.52832	0.000150513
2192.31	0.528442	1.474e-05
2196.63	0.528015	9.79614e-06
2201.01	0.529053	9.95483e-05
2205.33	0.52951	3.17383e-06
2209.65	0.529602	-1.15967e-06
2214.03	0.528137	7.94983e-05
2218.35	0.529022	9.58252e-06
2222.67	0.527924	9.97925e-06
2227.05	0.528259	6.57043e-05
2231.37	0.527863	1.37939e-05
2235.69	0.528137	8.08716e-06
2240.07	0.529449	4.54102e-05
2244.39	0.528168	1.44653e-05
2248.71	0.527985	9.42993e-06
2253.09	0.529083	3.92456e-05
2257.41	0.5289	9.552e-06
2261.73	0.528046	8.75854e-06
2266.11	0.52948	3.17688e-05
2270.43	0.527893	1.39771e-05
2274.75	0.528625	3.72314e-06
2279.13	0.528198	3.73535e-05
2283.45	0.529449	1.67847e-06
2287.77	0.528229	7.87354e-06
2292.15	0.528381	3.41797e-05
2296.47	0.529572	2.96021e-06
2300.79	0.529724	-2.86865e-06
2305.17	0.528381	2.65198e-05
2309.49	0.529419	3.38745e-06
2313.83	-0.697876	-0.0194794
2318.19	0.528381	2.56042e-05
2322.51	0.529572	1.86157e-06
2326.85	-0.699341	-0.0150421
2331.21	0.529358	1.76086e-05
2335.53	0.528198	1.18408e-05
2339.87	-0.699341	-0.0122375
2344.23	0.527985	2.54822e-05
2348.55	0.528015	1.20544e-05
2352.89	-0.698822	-0.01026
2357.25	0.528625	1.9989e-05
2361.57	0.528229	9.15527e-06
2365.93	-0.000900269	0.0101715
2370.27	0.529236	1.44043e-05
2374.59	0.529785	2.13623e-07
2378.95	0.000744629	0.00749512
2383.29	0.527954	2.04163e-05
2387.61	0.529388	-9.76562e-07
2391.97	0.00100098	0.00561981
2396.31	0.528229	1.74866e-05
2400.63	0.528076	9.3689e-06
2404.99	0.000878906	0.00414795
2409.33	0.528564	1.55029e-05
2413.65	0.527985	1.05591e-05
2418.03	0.528687	0.012851
2422.35	0.529846	8.63647e-06
2426.67	0.527985	9.46045e-06
2431.05	0.528473	0.00310913
2435.37	0.529663	7.84302e-06
2439.69	0.52951	-1.95313e-06
2444.07	0.529144	0.000436371
2448.39	0.528961	8.11768e-06
2452.71	0.528992	2.99072e-06
2457.09	0.52829	0.000204193
2461.41	0.528076	1.68457e-05
2465.73	0.527954	9.49097e-06
2470.11	0.528717	0.000123688
2474.43	0.529602	4.73022e-06
2478.75	0.529327	-1.2207e-06
2483.13	0.528748	8.98743e-05
2487.45	0.528717	1.10779e-05
2491.77	0.528229	7.65991e-06
2496.15	0.529572	6.38733e-05
2500.47	0.527985	1.6449e-05
2504.79	0.529755	-1.09863e-06
2509.17	0.529694	5.07202e-05
2513.49	0.528595	1.08032e-05
2517.81	0.5289	5.79834e-06
2522.19	0.52951	4.32129e-05
2526.51	0.528931	7.53784e-06
2530.83	0.52829	7.26318e-06
2535.21	0.528351	4.39758e-05
2539.53	0.527863	1.43433e-05
2543.85	0.528381	6.86646e-06
2548.23	0.528168	4.15344e-05
2552.55	0.52951	3.2959e-06
2556.87	0.529266	1.52588e-07
2561.25	0.528992	2.73743e-05
2565.57	0.52829	1.15356e-05
2569.89	0.528748	5.09644e-06
2574.27	0.527893	3.479e-05
2578.59	0.528259	1.18713e-05
2582.93	-0.697601	-0.0204712
2587.29	0.527893	3.17078e-05
2591.61	0.527985	1.22681e-05
2595.95	-0.698303	-0.0159882
2600.31	0.529602	1.78833e-05
2604.63	0.528473	8.69751e-06
2608.97	-0.698975	-0.01315
2613.33	0.529633	1.83105e-05
2617.65	0.528137	9.79614e-06
2621.99	-0.699371	-0.0110748
2626.35	0.528351	2.36206e-05
2630.67	0.529022	5.61523e-06
2635.03	-0.00101318	0.00993652
2639.37	0.527863	2.56958e-05
2643.69	0.527954	1.23596e-05
2648.05	-0.000817871	0.00750732
2652.39	0.527954	2.45972e-05
2656.71	0.528778	7.44629e-06
2661.07	0.000964355	0.00574982
2665.41	0.528137	2.10571e-05
2669.73	0.529541	-3.05176e-08
2674.09	-0.000601196	0.00436768
2678.43	0.529694	8.94165e-06
2682.75	0.528198	6.40869e-06
2687.13	0.527557	0.0139496
2691.45	0.529388	1.06812e-05
2695.77	0.528381	8.5144e-06
2700.15	0.527924	0.00762939
2704.47	0.528656	1.0437e-05
2708.79	0.528809	5.27954e-06
2713.17	0.529083	0.000720215
2717.49	0.528625	1.31226e-05
2721.81	0.528839	4.82178e-06
2726.19	0.527985	0.000277252
2730.51	0.528076	1.59302e-05
2734.83	0.529358	1.95313e-06
2739.21	0.527954	0.000159851
2743.53	0.529358	8.78906e-06
2747.85	0.529022	3.50952e-06
2752.23	0.529694	9.94568e-05
2756.55	0.528015	1.66016e-05
2760.87	0.528656	6.56128e-06
2765.25	0.529633	7.42798e-05
2769.57	0.529388	6.74438e-06
2773.89	0.529388	-5.49316e-07
2778.27	0.529358	5.88379e-05
2782.59	0.528076	1.48926e-05
2786.91	0.529419	-2.13623e-07
2791.29	0.528198	5.47791e-05
2795.61	0.529663	4.21143e-06
2799.93	0.529205	-7.32422e-07
2804.31	0.529297	4.12903e-05
2806.49	0.529572	-2.2583e-06