Folder: electrochromicfilms/Edgar/20240529/20240529/electrodeposition_pulsed_potential_20240529_B

File: OCP_1
Time (s)	WE(1).Potential (V)
2.04122	0.523682
3.04122	0.523987
4.04122	0.524292
5.04122	0.524597
6.04122	0.524902
7.04122	0.525208
8.04122	0.525513
9.04122	0.525818
10.0412	0.526123
11.0412	0.526428
12.0412	0.526733
13.0412	0.527344
14.0412	0.527344
15.0412	0.527649
16.0412	0.527954
17.0412	0.528259
18.0412	0.528564
19.0412	0.52887
20.0412	0.529175
21.0412	0.52948
22.0412	0.529785
23.0412	0.53009
24.0412	0.530396
25.0412	0.530701
26.0412	0.531006
27.0412	0.531311
28.0412	0.531616
29.0412	0.531921
30.0412	0.532227
31.0412	0.532532
32.0412	0.532837
33.0412	0.533142
34.0412	0.533447
35.0412	0.533752
36.0412	0.534058
37.0412	0.534363
38.0412	0.534668
39.0412	0.534973
40.0412	0.535278
41.0412	0.535583
42.0412	0.535889
43.0412	0.536194
44.0412	0.536194
45.0412	0.536499
46.0412	0.536804
47.0412	0.537109
48.0412	0.537415
49.0412	0.53772
50.0412	0.538025
51.0412	0.53833
52.0412	0.53833
53.0412	0.538635
54.0412	0.53894
55.0412	0.539246
56.0412	0.539551
57.0412	0.539551
58.0412	0.539856
59.0412	0.540161
60.0412	0.540466
61.0412	0.540771
62.0412	0.540771
63.0412	0.541077
64.0412	0.541382
65.0412	0.541687
66.0412	0.541992
67.0412	0.541992
68.0412	0.542297
69.0412	0.542603
70.0412	0.542908
71.0412	0.542908
72.0412	0.543213
73.0412	0.543518
74.0412	0.543518
75.0412	0.543823
76.0412	0.544128
77.0412	0.544128
78.0412	0.544434
79.0412	0.544434
80.0412	0.544739
81.0412	0.545044
82.0412	0.545044
83.0412	0.545349
84.0412	0.545654
85.0412	0.545654
86.0412	0.545959
87.0412	0.546265
88.0412	0.546265
89.0412	0.54657
90.0412	0.54657
91.0412	0.546875
92.0412	0.54718
93.0412	0.54718
94.0412	0.547485
95.0412	0.547485
96.0412	0.547791
97.0412	0.548096
98.0412	0.548096
99.0412	0.548401
100.041	0.548401
101.041	0.548706
102.041	0.548706
103.041	0.549011
104.041	0.549011
105.041	0.549316
106.041	0.549622
107.041	0.549622
108.041	0.549927
109.041	0.549927
110.041	0.550232
111.041	0.550232
112.041	0.550537
113.041	0.550537
114.041	0.550842
115.041	0.550842
116.041	0.551147
117.041	0.551453
118.041	0.551453
119.041	0.551758
120.041	0.551758
121.041	0.552063
122.041	0.552063
123.041	0.552368
124.041	0.552368
125.041	0.552673
126.041	0.552673
127.041	0.552979
128.041	0.552979
129.041	0.553284
130.041	0.553284
131.041	0.553589
132.041	0.553894
133.041	0.553894
134.041	0.554199
135.041	0.554504
136.041	0.554504
137.041	0.554504
138.041	0.55481
139.041	0.55481
140.041	0.555115
141.041	0.555115
142.041	0.55542
143.041	0.55542
144.041	0.555725
145.041	0.555725
146.041	0.55603
147.041	0.55603
148.041	0.556335
149.041	0.556335
150.041	0.556641
151.041	0.556641
152.041	0.556946
153.041	0.556946
154.041	0.557251
155.041	0.557251
156.041	0.557556
157.041	0.557556
158.041	0.557861
159.041	0.557861
160.041	0.558167
161.041	0.558167
162.041	0.558167
163.041	0.558472
164.041	0.558472
165.041	0.558777
166.041	0.558777
167.041	0.559082
168.041	0.559082
169.041	0.559387
170.041	0.559387
171.041	0.559387
172.041	0.559692
173.041	0.559692
174.041	0.559998
175.041	0.559998
176.041	0.560303
177.041	0.560303
178.041	0.560608
179.041	0.560913
180.041	0.560913
181.041	0.561218

File: OCP_3
Time (s)	WE(1).Potential (V)
5474.32	0.559387
5475.32	0.557556
5476.32	0.55603
5477.32	0.554504
5478.32	0.553284
5479.32	0.552063
5480.32	0.550842
5481.32	0.549622
5482.32	0.548401
5483.32	0.547485
5484.32	0.54657
5485.32	0.545654
5486.32	0.544739
5487.32	0.543823
5488.32	0.543213
5489.32	0.542297
5490.32	0.541687
5491.32	0.541077
5492.32	0.540466
5493.32	0.539856
5494.32	0.539246
5495.32	0.538635
5496.32	0.538025
5497.32	0.53772
5498.32	0.537109
5499.32	0.536804
5500.32	0.536194
5501.32	0.535889
5502.32	0.535583
5503.32	0.535278
5504.32	0.534668
5505.32	0.534363
5506.32	0.534058
5507.32	0.533752
5508.32	0.533447
5509.32	0.533142
5510.32	0.533142
5511.32	0.532837
5512.32	0.532532
5513.32	0.532227
5514.32	0.532227
5515.32	0.531921
5516.32	0.531616
5517.32	0.531616
5518.32	0.531311
5519.32	0.531311
5520.32	0.531006
5521.32	0.531006
5522.32	0.530701
5523.32	0.530701
5524.32	0.530396
5525.32	0.530396
5526.32	0.53009
5527.32	0.53009
5528.32	0.53009
5529.32	0.529785
5530.32	0.529785
5531.32	0.529785
5532.32	0.52948
5533.32	0.52948
5534.32	0.52948
5535.32	0.529175
5536.32	0.529175
5537.32	0.529175
5538.32	0.529175
5539.32	0.529175
5540.32	0.52887
5541.32	0.52887
5542.32	0.52887
5543.32	0.52887
5544.32	0.528564
5545.32	0.528564
5546.32	0.528564
5547.32	0.528564
5548.32	0.528564
5549.32	0.528564
5550.32	0.528564
5551.32	0.528564
5552.32	0.528259
5553.32	0.528259
5554.32	0.528259
5555.32	0.528259
5556.32	0.528259
5557.32	0.528259
5558.32	0.528259
5559.32	0.528259
5560.32	0.528259
5561.32	0.528259
5562.32	0.528259
5563.32	0.528259
5564.32	0.527954
5565.32	0.527954
5566.32	0.527954
5567.32	0.527954
5568.32	0.527954
5569.32	0.527954
5570.32	0.527954
5571.32	0.527954
5572.32	0.527954
5573.32	0.527649
5574.32	0.527649
5575.32	0.527649
5576.32	0.527649
5577.32	0.527649
5578.32	0.527649
5579.32	0.527649
5580.32	0.527649
5581.32	0.527649
5582.32	0.527649
5583.32	0.527649
5584.32	0.527649
5585.32	0.527649
5586.32	0.527649
5587.32	0.527649
5588.32	0.527649
5589.32	0.527649
5590.32	0.527649
5591.32	0.527649
5592.32	0.527649
5593.32	0.527649
5594.32	0.527649
5595.32	0.527649
5596.32	0.527649
5597.32	0.527649
5598.32	0.527649
5599.32	0.527649
5600.32	0.527649
5601.32	0.527649
5602.32	0.527649
5603.32	0.527649
5604.32	0.527649
5605.32	0.527649
5606.32	0.527649
5607.32	0.527649
5608.32	0.527649
5609.32	0.527649
5610.32	0.527649
5611.32	0.527649
5612.32	0.527649
5613.32	0.527649
5614.32	0.527649
5615.32	0.527649
5616.32	0.527649
5617.32	0.527649
5618.32	0.527649
5619.32	0.527649
5620.32	0.527649
5621.32	0.527649
5622.32	0.527649
5623.32	0.527649
5624.32	0.527649
5625.32	0.527649
5626.32	0.527649
5627.32	0.527649
5628.32	0.527649
5629.32	0.527649
5630.32	0.527649
5631.32	0.527649
5632.32	0.527649
5633.32	0.527649
5634.32	0.527649
5635.32	0.527649
5636.32	0.527649
5637.32	0.527649
5638.32	0.527954
5639.32	0.527954
5640.32	0.527954
5641.32	0.527954
5642.32	0.527954
5643.32	0.527954
5644.32	0.527954
5645.32	0.527954
5646.32	0.527954
5647.32	0.527954
5648.32	0.527954
5649.32	0.527954
5650.32	0.527954
5651.32	0.527954
5652.32	0.527954
5653.32	0.527954

File: pulses_0_to_1000.txt
Time (s)	WE(1).Potential (V)	WE(1).Current (A)
181.699	-0.699615	-0.00446838
186.059	0.56073	-4.57764e-07
190.379	0.561249	-4.69971e-06
194.719	-0.698517	-0.0039444
199.079	0.561249	-3.78418e-06
203.399	0.56012	3.11279e-06
207.739	-0.698975	-0.00437286
212.099	0.560547	8.54492e-07
216.419	0.560669	-2.44141e-07
220.759	-0.699432	-0.00491028
225.119	0.561523	-6.04248e-06
229.439	0.560669	-3.35693e-07
233.799	0.000341797	0.000297058
238.139	0.560425	1.89209e-06
242.459	0.560272	2.89917e-06
246.819	0.000891113	-4.55933e-05
251.159	0.561584	-6.22559e-06
255.479	0.560822	1.58691e-06
259.839	-0.000204468	-9.66797e-05
264.179	0.560516	-3.05176e-08
268.499	0.560699	6.10352e-07
272.859	0.000305176	-0.000127136
277.199	0.561157	-5.76782e-06
281.519	0.560272	1.61743e-06
285.899	0.560577	2.948e-05
290.219	0.56131	-6.13403e-06
294.539	0.561066	-3.78418e-06
298.919	0.560089	1.72729e-05
303.239	0.561554	-5.7373e-06
307.559	0.560852	-2.34985e-06
311.939	0.561554	1.89209e-06
316.259	0.56076	-2.80762e-06
320.579	0.560638	-1.19019e-06
324.959	0.561218	2.13623e-06
329.279	0.560486	1.31226e-06
333.599	0.561096	-3.60107e-06
337.979	0.560028	9.33838e-06
342.299	0.561249	-4.54712e-06
346.619	0.561523	-7.04956e-06
350.999	0.560944	5.79834e-07
355.319	0.560699	-1.34277e-06
359.639	0.560638	9.15527e-07
364.019	0.561462	-1.80054e-06
368.339	0.560181	3.69263e-06
372.659	0.561157	-3.8147e-06
377.039	0.561249	-2.19727e-06
381.359	0.56134	-6.04248e-06
385.679	0.56073	8.8501e-07
390.059	0.56012	7.50732e-06
394.379	0.561371	-7.08008e-06
398.699	0.561615	-7.84302e-06
403.079	0.56015	7.78198e-06
407.399	0.560669	-8.23975e-07
411.719	0.560333	2.31934e-06
416.099	0.560974	-2.13623e-07
420.419	0.561279	-4.24194e-06
424.739	0.561462	-6.53076e-06
429.119	0.560181	4.66919e-06
433.439	0.560425	9.76562e-07
437.759	0.56015	2.16675e-06
442.139	0.561005	-1.95313e-06
446.459	0.561584	-6.13403e-06
450.799	-0.69809	-0.0124786
455.159	0.559998	6.28662e-06
459.479	0.561523	-5.37109e-06
463.819	-0.698212	-0.00904541
468.179	0.56012	6.16455e-06
472.499	0.561493	-5.61523e-06
476.839	-0.698212	-0.00782166
481.199	0.560272	3.23486e-06
485.519	0.560883	-6.40869e-07
489.859	-0.69809	-0.00724915
494.219	0.560699	-3.96729e-07
498.539	0.560547	2.13623e-07
502.899	6.10352e-06	0.00681671
507.239	0.560089	4.91333e-06
511.559	0.560669	1.92261e-06
515.919	-7.32422e-05	0.00243103
520.259	0.561005	-2.44141e-07
524.579	0.56012	4.39453e-06
528.939	0.000973511	0.000723267
533.279	0.561188	-2.53296e-06
537.599	0.560577	-1.2207e-07
541.959	0.00057373	0.000147949
546.299	0.560242	4.05884e-06
550.619	0.560272	2.80762e-06
554.999	0.560944	0.000110779
559.319	0.561279	-3.05176e-06
563.639	0.56012	2.56348e-06
568.019	0.561401	3.21045e-05
572.339	0.560638	3.96729e-07
576.659	0.560089	4.24194e-06
581.039	0.56076	2.14844e-05
585.359	0.561554	-5.64575e-06
589.679	0.561584	-6.22559e-06
594.059	0.561523	9.30786e-06
598.379	0.561646	-4.94385e-06
602.699	0.561646	-7.14111e-06
607.079	0.560303	1.55334e-05
611.399	0.560272	3.54004e-06
615.719	0.561188	-3.9978e-06
620.099	0.561554	3.08228e-06
624.419	0.56131	-4.91333e-06
628.739	0.56076	-1.15967e-06
633.119	0.561188	3.93677e-06
637.439	0.561615	-4.18091e-06
641.759	0.560059	5.46265e-06
646.139	0.561157	3.90625e-06
650.459	0.560211	4.39453e-06
654.779	0.561279	-4.54712e-06
659.159	0.561401	6.10352e-07
663.479	0.56131	-4.36401e-06
667.799	0.560638	-1.83105e-06
672.179	0.561218	-9.46045e-07
676.499	0.561523	-5.40161e-06
680.819	0.56134	-6.04248e-06
685.199	0.56015	8.69751e-06
689.519	0.56134	-5.24902e-06
693.839	0.561676	-7.1106e-06
698.219	0.561188	-5.49316e-07
702.539	0.560516	2.2583e-06
706.859	0.560028	4.18091e-06
711.239	0.560028	7.93457e-06
715.559	0.560028	3.60107e-06
719.899	-0.698456	-0.0160706
724.259	0.560394	4.69971e-06
728.579	0.561707	-8.08716e-06
732.919	-0.698029	-0.0115204
737.279	0.560364	5.40161e-06
741.599	0.561005	-3.479e-06
745.939	-0.69809	-0.00949097
750.299	0.560059	7.23267e-06
754.619	0.561554	-6.92749e-06
758.959	-0.69812	-0.00847473
763.319	0.560516	3.08228e-06
767.639	0.56012	4.08936e-06
771.999	0.00072937	0.0084259
776.339	0.560516	5.43213e-06
780.659	0.561584	-4.08936e-06
785.019	-0.000170898	0.0044104
789.359	0.560425	4.08936e-06
793.679	0.560577	3.66211e-07
798.039	0.000247192	0.00206329
802.38	0.561462	-4.73022e-06
806.7	0.56131	-1.2207e-06
811.06	0.000344849	0.000901489
815.4	0.560883	-3.05176e-07
819.72	0.561188	-2.50244e-06
824.1	0.561859	0.000404175
828.42	0.560608	2.80762e-06
832.74	0.560516	2.44141e-06
837.12	0.561157	6.89392e-05
841.44	0.561646	-5.92041e-06
845.76	0.560333	2.0752e-06
850.14	0.561523	3.43018e-05
854.46	0.559998	5.06592e-06
858.78	0.559998	2.62451e-06
863.16	0.560089	3.19824e-05
867.48	0.56012	6.31714e-06
871.8	0.560089	4.57764e-06
876.18	0.560089	2.38037e-05
880.5	0.561646	-4.97437e-06
884.82	0.56015	6.073e-06
889.2	0.561523	9.79614e-06
893.52	0.560883	2.74658e-07
897.84	0.560303	2.04468e-06
902.22	0.561005	1.19629e-05
906.54	0.559937	6.13403e-06
910.86	0.560089	6.31714e-06
915.24	0.56015	1.35803e-05
919.56	0.561401	-4.79126e-06
923.88	0.561401	-4.39453e-06
928.26	0.560852	7.8125e-06
932.58	0.560028	7.23267e-06
936.9	0.56012	5.61523e-06
941.28	0.560944	5.21851e-06
945.6	0.56131	-2.65503e-06
949.92	0.559906	4.66919e-06
954.3	0.560272	1.16272e-05
958.62	0.561493	-4.97437e-06
962.94	0.56012	2.41089e-06
967.32	0.560913	3.87573e-06
971.64	0.561523	-5.24902e-06
975.96	0.561584	-6.22559e-06
980.34	0.561401	7.32422e-07
984.66	0.561035	-2.44141e-06
989	-0.698517	-0.0186249
993.36	0.561127	1.67847e-06
997.68	0.561615	-7.38525e-06
1002.02	-0.699432	-0.0136597
1006.38	0.560883	2.74658e-06
1010.7	0.560181	3.96729e-06
1015.04	-0.698486	-0.0110565
1019.4	0.560303	3.75366e-06
1023.72	0.561035	-1.86157e-06
1028.06	-0.698273	-0.00960693
1032.42	0.561249	9.15527e-07
1036.74	0.560608	-1.86157e-06
1041.1	-0.000708008	0.00901794
1045.44	0.560852	3.54004e-06
1049.76	0.560181	2.92969e-06
1054.12	0.000543213	0.00546112
1058.46	0.561615	-2.47192e-06
1062.78	0.561615	-6.40869e-06
1067.14	0.000811768	0.00311432
1071.48	0.559937	6.80542e-06
1075.8	0.561493	-5.5542e-06
1080.16	-0.000384521	0.00169159
1084.5	0.560181	5.31006e-06
1088.82	0.561493	-4.05884e-06
1093.2	0.559601	0.010498
1097.52	0.560791	3.57056e-06
1101.84	0.561554	-6.40869e-06
1106.22	0.561462	0.000119507
1110.54	0.560883	-1.43433e-06
1114.86	0.560028	5.76782e-06
1119.24	0.560608	5.96924e-05
1123.56	0.56131	-3.05176e-06
1127.88	0.56015	2.47192e-06
1132.26	0.559937	4.1626e-05
1136.58	0.561523	-4.36401e-06
1140.9	0.561401	-4.66919e-06
1145.28	0.561646	1.97754e-05
1149.6	0.561096	-6.10352e-08
1153.92	0.561249	-3.20435e-06
1158.3	0.56012	2.46277e-05
1162.62	0.560669	-8.23975e-07
1166.94	0.560608	8.8501e-07
1171.32	0.561401	1.04675e-05
1175.64	0.56012	5.06592e-06
1179.96	0.561279	-6.98853e-06
1184.34	0.561523	7.84302e-06
1188.66	0.561035	-1.52588e-06
1192.98	0.559967	6.56128e-06
1197.36	0.561432	7.08008e-06
1201.68	0.560089	5.98145e-06
1206	0.56076	-1.25122e-06
1210.38	0.561371	6.073e-06
1214.7	0.560181	6.13403e-06
1219.02	0.561401	-4.30298e-06
1223.4	0.56015	1.17798e-05
1227.72	0.560272	3.63159e-06
1232.04	0.560577	4.88281e-07
1236.42	0.561401	2.56348e-06
1240.74	0.559937	4.5166e-06
1245.06	0.561218	-1.25122e-06
1249.44	0.561035	3.479e-06
1253.76	0.560303	2.65503e-06
1258.1	-0.697571	-0.020578
1262.46	0.561462	7.01904e-07
1266.78	0.560608	2.16675e-06
1271.12	-0.697723	-0.0154907
1275.48	0.561646	-4.57764e-07
1279.8	0.561035	-1.7395e-06
1284.14	-0.698029	-0.0125549
1288.5	0.561523	-2.19727e-06
1292.82	0.56131	-3.9978e-06
1297.16	-0.697968	-0.0107513
1301.52	0.560669	1.43433e-06
1305.84	0.560211	3.44849e-06
1310.2	-0.000772095	0.00923767
1314.54	0.561615	-1.58691e-06
1318.86	0.559967	3.54004e-06
1323.22	0.00085144	0.00602844
1327.56	0.560455	5.70679e-06
1331.88	0.560059	4.27246e-06
1336.24	0.0009765625	0.0037915
1340.58	0.560059	8.78906e-06
1344.9	0.560059	5.24902e-06
1349.26	0.000994873	0.00228516
1353.6	0.560303	5.40161e-06
1357.92	0.560028	5.43213e-06
1362.3	0.55957	0.0128326
1366.62	0.559937	8.20923e-06
1370.94	0.561188	-4.5166e-06
1375.32	0.561401	0.000208191
1379.64	0.559937	7.72095e-06
1383.96	0.560272	3.38745e-06
1388.34	0.560059	8.3313e-05
1392.66	0.560181	8.39233e-06
1396.98	0.560547	2.13623e-07
1401.36	0.561157	4.33044e-05
1405.68	0.561554	-2.34985e-06
1410	0.561371	-4.48608e-06
1414.38	0.561523	2.6123e-05
1418.7	0.560883	1.67847e-06
1423.02	0.560974	-2.38037e-06
1427.4	0.560333	2.80762e-05
1431.72	0.560303	5.76782e-06
1436.04	0.560974	-1.80054e-06
1440.42	0.561371	1.59912e-05
1444.74	0.560089	6.37817e-06
1449.06	0.560303	3.20435e-06
1453.44	0.56012	2.09351e-05
1457.76	0.56012	6.92749e-06
1462.08	0.559937	4.21143e-06
1466.46	0.561462	7.84302e-06
1470.78	0.56015	6.40869e-06
1475.1	0.561157	-4.97437e-06
1479.48	0.559998	1.70288e-05
1481.66	0.561035	-3.57056e-06

File: pulses_1000_to_2000.txt
Time (s)	WE(1).Potential (V)	WE(1).Current (A)
1504.95	-0.698181	-0.0218292
1509.31	0.560394	6.01196e-06
1513.63	0.561554	-4.97437e-06
1517.97	-0.699005	-0.0167267
1522.33	0.561432	-1.7395e-06
1526.65	0.561462	-4.08936e-06
1530.99	-0.69812	-0.0136658
1535.35	0.56134	2.7771e-06
1539.67	0.561005	-3.14331e-06
1544.01	-0.698578	-0.0116516
1548.37	0.560364	7.8125e-06
1552.69	0.56076	-6.40869e-07
1557.05	-0.00017395	0.00916748
1561.39	0.560516	5.34058e-06
1565.71	0.561615	-5.15747e-06
1570.07	0.000790405	0.00623138
1574.41	0.560791	1.00708e-06
1578.73	0.560333	3.93677e-06
1583.09	0.000100708	0.00411652
1587.43	0.561401	-1.64795e-06
1591.75	0.56012	5.76782e-06
1596.11	0.000466919	0.00261871
1600.45	0.559967	5.27954e-06
1604.77	0.560089	4.94385e-06
1609.15	0.56012	0.013916
1613.47	0.560181	5.7373e-06
1617.79	0.561188	-4.11987e-06
1622.17	0.56073	0.000985718
1626.49	0.560699	3.93677e-06
1630.81	0.560181	3.72314e-06
1635.19	0.560852	9.61304e-05
1639.51	0.561462	-1.25122e-06
1643.83	0.560852	-2.56348e-06
1648.21	0.560577	5.6488e-05
1652.53	0.561554	-4.42505e-06
1656.85	0.56073	1.46484e-06
1661.23	0.559967	4.4342e-05
1665.55	0.560455	3.90625e-06
1669.87	0.559998	5.00488e-06
1674.25	0.559998	3.51562e-05
1678.57	0.561432	-3.08228e-06
1682.89	0.561493	-6.04248e-06
1687.27	0.560333	2.67944e-05
1691.59	0.561584	-4.18091e-06
1695.91	0.560242	5.61523e-06
1700.29	0.561646	1.19629e-05
1704.61	0.561554	-4.3335e-06
1708.93	0.561462	-6.56128e-06
1713.31	0.56015	1.98364e-05
1717.63	0.561401	-4.30298e-06
1721.95	0.560638	-2.2583e-06
1726.33	0.56015	1.66321e-05
1730.65	0.560028	6.22559e-06
1734.97	0.560516	3.05176e-06
1739.35	0.560181	1.5686e-05
1743.67	0.561401	-2.99072e-06
1747.99	0.561401	-5.34058e-06
1752.37	0.561493	4.21143e-06
1756.69	0.561584	-3.17383e-06
1761.01	0.560181	4.42505e-06
1765.39	0.561218	5.21851e-06
1769.71	0.560303	4.91333e-06
1774.05	-0.69873	-0.0226898
1778.41	0.56012	1.07117e-05
1782.73	0.560394	5.58472e-06
1787.07	-0.69754	-0.0178436
1791.43	0.561401	1.0376e-06
1795.75	0.561584	-3.72314e-06
1800.09	-0.697723	-0.0147095
1804.45	0.56015	1.11389e-05
1808.77	0.561768	-5.67627e-06
1813.11	-0.697815	-0.0125519
1817.47	0.560608	5.88989e-06
1821.79	0.56012	5.52368e-06
1826.15	0.000296021	0.0090271
1830.49	0.561371	7.32422e-07
1834.81	0.56012	5.52368e-06
1839.17	0.000698853	0.00633148
1843.51	0.561523	-1.52588e-06
1847.83	0.561005	-1.98364e-06
1852.19	0.000921631	0.00434235
1856.53	0.561188	6.10352e-07
1860.85	0.561157	-1.31226e-06
1865.21	-0.000314331	0.00287781
1869.55	0.561554	-2.68555e-06
1873.87	0.560059	6.10352e-06
1878.25	0.560944	0.0148163
1882.57	0.560394	5.40161e-06
1886.89	0.560181	6.95801e-06
1891.27	0.559753	0.00862122
1895.59	0.560516	4.08936e-06
1899.91	0.561096	-2.01416e-06
1904.29	0.560059	0.000129181
1908.61	0.561615	-2.74658e-06
1912.93	0.560181	3.14331e-06
1917.31	0.560242	6.54602e-05
1921.63	0.559967	8.3313e-06
1925.95	0.560059	5.18799e-06
1930.33	0.561523	3.68958e-05
1934.65	0.561005	2.13623e-07
1938.97	0.561554	-5.40161e-06
1943.35	0.561554	2.73132e-05
1947.67	0.560791	2.80762e-06
1951.99	0.559967	6.50024e-06
1956.37	0.561432	2.0752e-05
1960.69	0.560364	5.06592e-06
1965.01	0.560608	6.40869e-07
1969.39	0.560974	1.72119e-05
1973.71	0.561615	-4.63867e-06
1978.03	0.561096	-3.08228e-06
1982.41	0.560425	1.953125E-05
1986.73	0.56131	-4.5166e-06
1991.05	0.559967	4.91333e-06
1995.43	0.560974	1.05591e-05
1999.75	0.561188	-2.13623e-06
2004.07	0.560852	-1.46484e-06
2008.45	0.561493	8.91113e-06
2012.77	0.56134	-2.89917e-06
2017.09	0.560333	3.05176e-07
2021.47	0.560303	1.35803e-05
2025.79	0.560883	1.83105e-07
2030.11	0.560944	-1.98364e-06
2034.49	0.56012	1.37939e-05
2038.81	0.559937	6.89697e-06
2043.15	-0.698883	-0.0233582
2047.51	0.561066	6.98853e-06
2051.83	0.561279	-3.08228e-06
2056.17	-0.698944	-0.0187012
2060.53	0.559998	1.25122e-05
2064.85	0.561279	-2.50244e-06
2069.19	-0.697723	-0.0155579
2073.55	0.56015	1.1261e-05
2077.87	0.561554	-4.97437e-06
2082.21	-0.697968	-0.0133148
2086.57	0.561371	1.00708e-06
2090.89	0.560486	2.68555e-06
2095.25	5.79834e-05	0.00881958
2099.59	0.561188	3.02124e-06
2103.91	0.560272	5.09644e-06
2108.27	-0.000546265	0.00636505
2112.61	0.560059	9.94873e-06
2116.93	0.561401	-3.66211e-06
2121.29	-0.000170898	0.00449738
2125.63	0.561584	-3.66211e-07
2129.95	0.561127	-4.27246e-07
2134.31	-0.000485229	0.00308258
2138.65	0.560638	2.71606e-06
2142.97	0.560303	4.97437e-06
2147.35	0.559387	0.0154755
2151.67	0.561646	-3.05176e-06
2155.99	0.561127	-1.25122e-06
2160.37	0.560974	0.0105042
2164.69	0.561523	-1.06812e-06
2169.01	0.560944	-4.27246e-07
2173.39	0.560425	0.000265686
2177.71	0.560059	8.66699e-06
2182.03	0.561249	-3.8147e-06
2186.41	0.561127	6.95801e-05
2190.73	0.561096	-1.2207e-06
2195.05	0.560913	6.71387e-07
2199.43	0.561157	4.41589e-05
2203.75	0.56134	-1.0376e-06
2208.07	0.560455	3.44849e-06
2212.45	0.560028	4.02832e-05
2216.77	0.560059	7.72095e-06
2221.09	0.561646	-5.00488e-06
2225.47	0.560211	3.03345e-05
2229.79	0.559998	6.40869e-06
2234.11	0.560089	5.27954e-06
2238.49	0.561188	1.69678e-05
2242.81	0.561584	-4.21143e-06
2247.13	0.560089	6.34766e-06
2251.51	0.561401	1.11694e-05
2255.83	0.560974	-6.71387e-07
2260.15	0.561646	-5.64575e-06
2264.53	0.561401	1.15662e-05
2268.85	0.559998	7.69043e-06
2273.17	0.560852	3.05176e-07
2277.55	0.560608	1.38855e-05
2281.87	0.561554	-4.30298e-06
2286.19	0.561432	-4.3335e-06
2290.57	0.560211	1.63574e-05
2294.89	0.561279	-1.80054e-06
2299.21	0.560028	5.34058e-06
2303.59	0.560211	1.25732e-05
2307.91	0.561737	-4.15039e-06
2312.25	-0.697357	-0.0237885
2316.61	0.560272	1.18408e-05
2320.93	0.561554	-4.63867e-06
2325.27	-0.697571	-0.0193481
2329.63	0.560638	8.57544e-06
2333.95	0.561035	-1.83105e-06
2338.29	-0.69873	-0.0162384
2342.65	0.561279	3.35693e-06
2346.97	0.56134	-1.67847e-06
2351.31	-0.699249	-0.0139709
2355.67	0.56076	4.85229e-06
2359.99	0.56015	4.54712e-06
2364.35	-0.000830078	0.00854797
2368.69	0.560455	7.99561e-06
2373.01	0.560364	2.96021e-06
2377.37	0.000836182	0.00623596
2381.71	0.560181	8.60596e-06
2386.03	0.559967	7.99561e-06
2390.39	0.000234985	0.00447968
2394.73	0.561676	-1.40381e-06
2399.05	0.56012	5.06592e-06
2403.41	0.000897217	0.00312256
2407.75	0.560364	7.32422e-06
2412.07	0.560272	2.83813e-06
2416.45	0.560242	0.0158783
2420.77	0.561218	-3.96729e-07
2425.09	0.560181	3.66211e-06
2429.47	0.560455	0.0114532
2433.79	0.561493	-2.13623e-06
2438.11	0.561584	-4.57764e-06
2442.49	0.560059	0.000685425
2446.81	0.561371	-6.10352e-07
2451.13	0.560638	1.40381e-06
2455.51	0.561615	8.85315e-05
2459.83	0.559967	9.00269e-06
2464.15	0.561523	-4.76074e-06
2468.53	0.560303	5.44434e-05
2472.85	0.560059	8.23975e-06
2477.17	0.561005	-4.48608e-06
2481.55	0.560944	3.29895e-05
2485.87	0.56012	7.99561e-06
2490.19	0.560516	1.06812e-06
2494.57	0.561615	2.15454e-05
2498.89	0.560028	7.01904e-06
2503.21	0.561157	-3.96729e-06
2507.59	0.561584	1.51367e-05
2511.91	0.561676	-4.24194e-06
2516.23	0.561005	-1.89209e-06
2520.61	0.560181	2.33459e-05
2524.93	0.560608	2.44141e-06
2529.25	0.561218	-8.23975e-07
2533.63	0.560425	1.828e-05
2537.95	0.561279	-1.95313e-06
2542.27	0.560516	2.01416e-06
2546.65	0.561432	7.69043e-06
2550.97	0.56076	2.53296e-06
2555.29	0.56131	-4.30298e-06
2559.67	0.560669	1.28479e-05
2563.99	0.56134	-4.36401e-06
2568.31	0.560638	3.69263e-06
2572.69	0.560089	1.44043e-05
2577.01	0.561493	-2.83813e-06
2581.35	-0.698181	-0.0241821
2585.71	0.561523	3.69263e-06
2590.03	0.560822	-3.35693e-07
2594.37	-0.697601	-0.0199005
2598.73	0.561554	3.20435e-06
2603.05	0.561615	-5.7373e-06
2607.39	-0.698944	-0.016806
2611.75	0.559906	1.08032e-05
2616.07	0.560028	5.24902e-06
2620.41	-0.697968	-0.0145264
2624.77	0.560974	5.24902e-06
2629.09	0.56134	-4.3335e-06
2633.45	-0.000576782	0.00830688
2637.79	0.560059	1.15356e-05
2642.11	0.560455	1.77002e-06
2646.47	0.000369263	0.00612427
2650.81	0.560059	9.39941e-06
2655.13	0.561401	-3.38745e-06
2659.49	0.000537109	0.00445404
2663.83	0.560608	7.78198e-06
2668.15	0.561584	-5.18799e-06
2672.51	-0.000500488	0.00316193
2676.85	0.56015	9.49097e-06
2681.17	0.559937	4.60815e-06
2685.55	0.56012	0.0161957
2689.87	0.561737	-1.64795e-06
2694.19	0.56134	-3.63159e-06
2698.57	0.56073	0.0120605
2702.89	0.560333	8.08716e-06
2707.21	0.561646	-5.61523e-06
2711.59	0.561646	0.00162445
2715.91	0.559967	9.73511e-06
2720.23	0.560272	3.54004e-06
2724.61	0.560883	0.000148346
2728.93	0.56015	8.97217e-06
2733.25	0.560638	-9.46045e-07
2737.63	0.561584	5.04456e-05
2741.95	0.561584	-4.36401e-06
2746.27	0.559998	5.43213e-06
2750.65	0.560089	3.92761e-05
2754.97	0.56134	-2.50244e-06
2759.29	0.560028	5.79834e-06
2763.67	0.560211	3.27454e-05
2767.99	0.560974	1.40381e-06
2772.31	0.560425	3.84521e-06
2776.69	0.56015	2.70691e-05
2781.01	0.561249	-7.93457e-07
2785.33	0.559998	5.58472e-06
2789.71	0.561462	1.28784e-05
2794.03	0.560364	3.93677e-06
2798.35	0.560638	-2.2583e-06
2802.73	0.561127	1.25427e-05
2804.91	0.560089	4.97437e-06