Folder: electrochromicfilms/Edgar/20240529/20240529/electrodeposition_pulsed_potential_20240529_A (part 2)

File: pulses_2000_to_3000.txt
Time (s)	WE(1).Potential (V)	WE(1).Current (A)
2829.48	-0.698242	-0.0212891
2833.84	0.529449	2.21252e-05
2838.16	0.52948	3.63159e-06
2842.5	-0.697754	-0.0168152
2846.86	0.528229	2.8656e-05
2851.18	0.529236	3.96729e-06
2855.52	-0.698456	-0.0139923
2859.88	0.529114	2.03857e-05
2864.2	0.528381	9.552e-06
2868.54	-0.699677	-0.0118805
2872.9	0.529572	1.60217e-05
2877.22	0.529297	2.59399e-06
2881.58	0.000476074	0.00957947
2885.92	0.528381	2.2644e-05
2890.24	0.5289	2.0752e-06
2894.6	-0.000671387	0.00736176
2898.94	0.527832	2.48718e-05
2903.26	0.529388	1.15967e-06
2907.62	9.15527e-05	0.00574707
2911.96	0.52948	1.13525e-05
2916.28	0.529297	3.08228e-06
2920.64	0.000942993	0.00444611
2924.98	0.529297	1.33057e-05
2929.3	0.528961	3.63159e-06
2933.68	0.527313	0.0147217
2938	0.529449	1.16577e-05
2942.32	0.527985	1.08948e-05
2946.7	0.52832	0.00964966
2951.02	0.529388	9.3689e-06
2955.34	0.528961	3.72314e-06
2959.72	0.529663	0.00132019
2964.04	0.528564	1.71814e-05
2968.36	0.528015	8.48389e-06
2972.74	0.529572	0.000380615
2977.06	0.529572	6.53076e-06
2981.38	0.52951	3.35693e-07
2985.76	0.528107	0.000199677
2990.08	0.528992	1.10168e-05
2994.4	0.528015	1.1261e-05
2998.78	0.529572	0.000122498
3003.1	0.527924	1.67236e-05
3007.42	0.529755	-9.76562e-07
3011.8	0.52951	8.6853e-05
3016.12	0.529358	8.54492e-06
3020.44	0.529572	-5.18799e-07
3024.82	0.529602	6.49719e-05
3029.14	0.528259	1.48926e-05
3033.46	0.528046	1.01013e-05
3037.84	0.529175	5.70068e-05
3042.16	0.52832	1.28784e-05
3046.48	0.529266	1.95313e-06
3050.86	0.528625	5.27954e-05
3055.18	0.528107	1.33667e-05
3059.5	0.528687	5.98145e-06
3063.88	0.528015	4.81567e-05
3068.2	0.528259	1.2085e-05
3072.52	0.529022	2.04468e-06
3076.9	0.528931	3.64685e-05
3081.22	0.528961	8.97217e-06
3085.54	0.528778	4.94385e-06
3089.92	0.529633	2.79236e-05
3094.24	0.529175	5.49316e-06
3098.58	-0.699005	-0.0220093
3102.94	0.527924	3.59192e-05
3107.26	0.52951	3.57056e-06
3111.6	-0.699158	-0.0175842
3115.96	0.528687	2.90833e-05
3120.28	0.52887	4.21143e-06
3124.62	-0.698273	-0.0147491
3128.98	0.529633	2.00806e-05
3133.3	0.527985	1.35803e-05
3137.64	-0.699127	-0.0125977
3142	0.529541	1.73035e-05
3146.32	0.529205	5.95093e-06
3150.68	-0.000750732	0.00928955
3155.02	0.528168	2.55127e-05
3159.34	0.528046	1.297e-05
3163.7	-0.00032959	0.00722321
3168.04	0.528168	2.48413e-05
3172.36	0.529816	1.58691e-06
3176.72	0.000442505	0.00570129
3181.06	0.529297	1.62659e-05
3185.38	0.528015	1.21765e-05
3189.74	0.000402832	0.00448395
3194.08	0.529724	9.52148e-06
3198.4	0.529236	2.44141e-06
3202.78	0.527557	0.0153564
3207.1	0.529053	1.43127e-05
3211.42	0.528961	6.37817e-06
3215.8	0.529205	0.0108734
3220.12	0.528839	1.14441e-05
3224.44	0.529633	7.62939e-07
3228.82	0.528046	0.00287476
3233.14	0.528076	1.89819e-05
3237.46	0.529297	2.0752e-06
3241.84	0.528778	0.000566406
3246.16	0.529419	1.0376e-05
3250.48	0.52951	1.64795e-06
3254.86	0.528473	0.000254761
3259.18	0.529541	6.68335e-06
3263.5	0.529114	3.11279e-06
3267.88	0.529449	0.000148102
3272.2	0.528381	1.474e-05
3276.52	0.529633	-1.43433e-06
3280.9	0.529388	0.000100616
3285.22	0.529327	7.50732e-06
3289.54	0.529602	-2.89917e-06
3293.92	0.527954	8.55408e-05
3298.24	0.528412	1.60217e-05
3302.56	0.528076	7.1106e-06
3306.94	0.528687	6.2439e-05
3311.26	0.529175	8.42285e-06
3315.58	0.529175	2.47192e-06
3319.96	0.529327	5.06287e-05
3324.28	0.528351	1.34888e-05
3328.6	0.52829	5.67627e-06
3332.98	0.529663	3.95508e-05
3337.3	0.528992	7.56836e-06
3341.62	0.528259	7.72095e-06
3346	0.529297	3.42407e-05
3350.32	0.528046	1.74561e-05
3354.64	0.528107	1.23901e-05
3359.02	0.529541	2.98157e-05
3363.34	0.528656	9.85718e-06
3367.68	-0.697876	-0.0226746
3372.04	0.52829	3.54309e-05
3376.36	0.528503	1.12915e-05
3380.7	-0.698059	-0.0183167
3385.06	0.528992	2.75269e-05
3389.38	0.528595	1.10168e-05
3393.72	-0.698334	-0.0154572
3398.08	0.528656	2.60925e-05
3402.4	0.529297	4.24194e-06
3406.74	-0.698273	-0.0133179
3411.1	0.529541	1.85852e-05
3415.42	0.52887	7.93457e-06
3419.78	-0.000708008	0.00894775
3424.12	0.528961	1.96838e-05
3428.44	0.529541	3.84521e-06
3432.8	-0.000326538	0.00707428
3437.14	0.528931	1.77307e-05
3441.46	0.529663	1.37329e-06
3445.82	0.000927734	0.00565277
3450.16	0.529663	1.27563e-05
3454.48	0.52829	1.00403e-05
3458.84	0.00108643	0.00449921
3463.18	0.527954	2.35596e-05
3467.5	0.528564	8.91113e-06
3471.88	0.527893	0.0158264
3476.2	0.529175	1.44958e-05
3480.52	0.527985	1.24817e-05
3484.9	0.527588	0.0117493
3489.22	0.5289	1.31836e-05
3493.54	0.527863	1.3031e-05
3497.92	0.529358	0.00607483
3502.24	0.527893	2.21558e-05
3506.56	0.528076	1.10168e-05
3510.94	0.529114	0.000843506
3515.26	0.528015	1.88599e-05
3519.58	0.529358	2.0752e-06
3523.96	0.529175	0.000333374
3528.28	0.529053	1.24817e-05
3532.6	0.5289	6.2561e-06
3536.98	0.529633	0.000177185
3541.3	0.529358	6.65283e-06
3545.62	0.528656	7.56836e-06
3550	0.529297	0.000116425
3554.32	0.528687	1.27258e-05
3558.64	0.529114	2.65503e-06
3563.02	0.529388	8.45642e-05
3567.34	0.528564	1.25732e-05
3571.66	0.528992	7.2937e-06
3576.04	0.52951	6.22864e-05
3580.36	0.527985	1.67847e-05
3584.68	0.529572	-7.01904e-07
3589.06	0.529297	5.35583e-05
3593.38	0.528076	1.5686e-05
3597.7	0.528534	4.3335e-06
3602.08	0.528259	5.42297e-05
3606.4	0.528473	1.14136e-05
3610.72	0.528351	6.19507e-06
3615.1	0.529175	3.84521e-05
3619.42	0.528809	8.78906e-06
3623.74	0.528107	1.09253e-05
3628.12	0.529572	3.10059e-05
3632.44	0.52948	3.63159e-06
3636.78	-0.69751	-0.0230774
3641.14	0.528961	3.32947e-05
3645.46	0.528046	1.44653e-05
3649.8	-0.698578	-0.0188202
3654.16	0.528931	2.771e-05
3658.48	0.528687	9.73511e-06
3662.82	-0.697845	-0.0159607
3667.18	0.529602	2.13928e-05
3671.5	0.529297	2.50244e-06
3675.84	-0.699249	-0.0137909
3680.2	0.529327	2.31934e-05
3684.52	0.528442	9.94873e-06
3688.88	-0.00109253	0.00874023
3693.22	0.528107	2.98462e-05
3697.54	0.528687	9.24683e-06
3701.9	0.000820923	0.00695465
3706.24	0.529175	1.85242e-05
3710.56	0.528137	1.35193e-05
3714.92	-0.000378418	0.00561005
3719.26	0.528015	2.46277e-05
3723.58	0.528137	1.18713e-05
3727.94	6.71387e-05	0.00448273
3732.28	0.5289	1.52893e-05
3736.6	0.528198	1.11084e-05
3740.98	0.528656	0.0160919
3745.3	0.528778	1.651e-05
3749.62	0.529572	3.54004e-06
3754	0.529114	0.0121948
3758.32	0.529449	1.15662e-05
3762.64	0.528015	1.31226e-05
3767.02	0.528198	0.00716309
3771.34	0.528809	1.45569e-05
3775.66	0.528809	5.79834e-06
3780.04	0.528351	0.00107971
3784.36	0.529205	9.12476e-06
3788.68	0.528534	7.47681e-06
3793.06	0.529449	0.000405304
3797.38	0.52951	8.30078e-06
3801.7	0.527832	1.16882e-05
3806.08	0.528381	0.000220245
3810.4	0.528503	1.47705e-05
3814.72	0.528168	9.765625E-06
3819.1	0.529602	0.00013028
3823.42	0.528473	1.29089e-05
3827.74	0.528046	9.94873e-06
3832.12	0.528534	9.74426e-05
3836.44	0.528381	1.41602e-05
3840.76	0.527954	1.03455e-05
3845.14	0.528534	7.52563e-05
3849.46	0.528442	1.37634e-05
3853.78	0.528503	7.47681e-06
3858.16	0.528198	6.5155e-05
3862.48	0.52951	5.31006e-06
3866.8	0.529205	2.56348e-06
3871.18	0.52948	4.5929e-05
3875.5	0.528137	1.59912e-05
3879.82	0.528778	5.24902e-06
3884.2	0.529114	4.13513e-05
3888.52	0.52948	6.43921e-06
3892.84	0.528809	3.84521e-06
3897.22	0.528076	4.41284e-05
3901.54	0.529266	4.76074e-06
3905.88	-0.697632	-0.0233276
3910.24	0.528992	3.35999e-05
3914.56	0.528076	1.33667e-05
3918.9	-0.69754	-0.0191925
3923.26	0.529663	2.47192e-05
3927.58	0.529022	8.42285e-06
3931.92	-0.697601	-0.0163635
3936.28	0.528168	3.15857e-05
3940.6	0.529572	2.89917e-06
3944.94	-0.699097	-0.0141968
3949.3	0.528687	2.80151e-05
3953.62	0.528015	1.3855e-05
3957.98	0.000299072	0.00845337
3962.32	0.528839	2.21863e-05
3966.64	0.529633	2.19727e-06
3971	0.000473022	0.00676727
3975.34	0.528534	2.44446e-05
3979.66	0.529572	1.37329e-06
3984.02	1.83105e-05	0.00548737
3988.36	0.529175	1.72424e-05
3992.68	0.528381	8.08716e-06
3997.04	0.000534058	0.00441803
4001.38	0.528748	1.80054e-05
4005.7	0.52948	4.88281e-07
4010.08	0.528778	0.016333
4014.4	0.528076	2.28271e-05
4018.72	0.529297	2.92969e-06
4023.1	0.528656	0.0126526
4027.42	0.528809	1.63879e-05
4031.74	0.529358	1.06812e-06
4036.12	0.529297	0.00847473
4040.44	0.529541	1.00708e-05
4044.76	0.528992	6.28662e-06
4049.14	0.529633	0.00155243
4053.46	0.529633	9.52148e-06
4057.78	0.528229	1.08948e-05
4062.16	0.529144	0.000550537
4066.48	0.529663	7.56836e-06
4070.8	0.528564	7.90405e-06
4075.18	0.528015	0.000278107
4079.5	0.529388	7.78198e-06
4083.82	0.529205	2.7771e-06
4088.2	0.528198	0.000167603
4092.52	0.529419	8.14819e-06
4096.84	0.528107	1.08337e-05
4101.22	0.528748	0.000112762
4105.54	0.528992	9.18579e-06
4109.86	0.528931	8.02612e-06
4114.24	0.529724	7.62939e-05
4118.56	0.528046	1.69678e-05
4122.88	0.528107	1.12e-05
4127.26	0.528046	7.24487e-05
4129.44	0.529541	-5.79834e-07

File: pulses_3000_to_4000.txt
Time (s)	WE(1).Potential (V)	WE(1).Current (A)
4152.55	-0.698944	-0.0236206
4156.91	0.528748	3.55225e-05
4161.23	0.529175	6.83594e-06
4165.57	-0.69754	-0.0195953
4169.93	0.529633	2.67639e-05
4174.25	0.529388	4.02832e-06
4178.59	-0.698517	-0.0167999
4182.95	0.528442	3.12195e-05
4187.27	0.528717	9.94873e-06
4191.61	-0.697815	-0.0146393
4195.97	0.528412	2.91748e-05
4200.29	0.529449	7.32422e-06
4204.65	-0.000302124	0.00821838
4208.99	0.529633	1.75781e-05
4213.31	0.528748	1.09253e-05
4217.67	-0.000747681	0.0066272
4222.01	0.529633	1.53809e-05
4226.33	0.52832	1.14136e-05
4230.69	0.000906372	0.0053949
4235.03	0.528778	1.85242e-05
4239.35	0.528442	1.05896e-05
4243.71	0.000637817	0.00437164
4248.05	0.529816	1.19629e-05
4252.37	0.529694	2.01416e-06
4256.75	0.528595	0.0165222
4261.07	0.528229	2.23999e-05
4265.39	0.528076	1.297e-05
4269.77	0.528625	0.0129425
4274.09	0.528442	1.82495e-05
4278.41	0.528839	5.92041e-06
4282.79	0.52771	0.00916748
4287.11	0.52832	1.85852e-05
4291.43	0.52829	1.03455e-05
4295.81	0.52951	0.00204315
4300.13	0.52829	1.93481e-05
4304.45	0.529358	2.89917e-06
4308.83	0.529297	0.000678711
4313.15	0.529266	1.28479e-05
4317.47	0.529327	2.31934e-06
4321.85	0.528687	0.000331238
4326.17	0.529388	8.42285e-06
4330.49	0.529755	-1.92261e-06
4334.87	0.528534	0.000191315
4339.19	0.529633	7.59888e-06
4343.51	0.528046	1.09558e-05
4347.89	0.529663	0.0001171875
4352.21	0.529205	1.05896e-05
4356.53	0.529541	-3.05176e-08
4360.91	0.527985	9.57336e-05
4365.23	0.529846	6.22559e-06
4369.55	0.529419	-7.93457e-07
4373.93	0.529663	6.4209e-05
4378.25	0.528961	1.07727e-05
4382.57	0.528015	1.15967e-05
4386.95	0.528442	6.01196e-05
4391.27	0.529449	4.15039e-06
4395.59	0.528442	9.0332e-06
4399.97	0.528656	5.0293e-05
4404.29	0.527924	1.55334e-05
4408.61	0.529175	2.22778e-06
4412.99	0.529785	3.4729e-05
4417.31	0.528412	1.16882e-05
4421.65	-0.697266	-0.0239166
4426.01	0.529175	3.62549e-05
4430.33	0.528046	1.44653e-05
4434.67	-0.698029	-0.0199615
4439.03	0.529144	3.4668e-05
4443.35	0.528931	8.14819e-06
4447.69	-0.69873	-0.0171478
4452.05	0.528442	2.98157e-05
4456.37	0.529633	3.32642e-06
4460.71	-0.699158	-0.0150177
4465.07	0.529358	2.38342e-05
4469.39	0.528046	1.50146e-05
4473.75	-0.000900269	0.00802612
4478.09	0.528442	2.6062e-05
4482.41	0.529633	2.16675e-06
4486.77	-0.000186157	0.006484375
4491.11	0.528778	2.24304e-05
4495.43	0.529633	2.16675e-06
4499.79	-0.0006073	0.00530426
4504.13	0.529541	1.55334e-05
4508.45	0.528107	1.42517e-05
4512.81	0.00111694	0.00430786
4517.15	0.528259	2.45972e-05
4521.47	0.529053	4.57764e-06
4525.85	0.528412	0.0166656
4530.17	0.528351	2.06299e-05
4534.49	0.528259	1.03455e-05
4538.87	0.528564	0.0132019
4543.19	0.529541	1.06506e-05
4547.51	0.529694	1.31226e-06
4551.89	0.528534	0.00968323
4556.21	0.528168	1.95618e-05
4560.53	0.529572	3.96729e-07
4564.91	0.528809	0.00274048
4569.23	0.529175	1.37634e-05
4573.55	0.52887	4.82178e-06
4577.93	0.528015	0.000851135
4582.25	0.528687	1.54114e-05
4586.57	0.529449	-4.88281e-07
4590.95	0.528442	0.000408569
4595.27	0.527985	2.0874e-05
4599.59	0.529541	5.79834e-07
4603.97	0.529724	0.000226807
4608.29	0.529266	9.27734e-06
4612.61	0.528015	9.765625E-06
4616.99	0.529083	0.000144562
4621.31	0.528656	1.35193e-05
4625.63	0.528107	1.19934e-05
4630.01	0.528046	0.00010849
4634.33	0.52829	1.59607e-05
4638.65	0.52948	1.19019e-06
4643.03	0.529449	7.34863e-05
4647.35	0.529633	7.08008e-06
4651.67	0.529114	1.92261e-06
4656.05	0.528839	6.04858e-05
4660.37	0.528931	1.19019e-05
4664.69	0.528107	1.03149e-05
4669.07	0.528015	5.5542e-05
4673.39	0.529022	8.48389e-06
4677.71	0.528595	1.03455e-05
4682.09	0.528107	4.84924e-05
4686.41	0.527954	1.63574e-05
4690.75	-0.698242	-0.0241089
4695.11	0.5289	3.94897e-05
4699.43	0.529449	6.34766e-06
4703.77	-0.699036	-0.0202484
4708.13	0.528412	3.66821e-05
4712.45	0.529755	1.92261e-06
4716.79	-0.697815	-0.0174805
4721.15	0.528229	3.26233e-05
4725.47	0.528259	1.23291e-05
4729.81	-0.698303	-0.0153534
4734.17	0.529724	2.20947e-05
4738.49	0.528687	7.04956e-06
4742.85	-0.00020752	0.00779419
4747.19	0.529785	1.83105e-05
4751.51	0.527985	1.26953e-05
4755.87	-0.000613403	0.0063092
4760.21	0.529175	2.23999e-05
4764.53	0.529327	5.00488e-06
4768.89	0.000808716	0.00516449
4773.23	0.52832	2.37122e-05
4777.55	0.529663	1.43433e-06
4781.91	-6.40869e-05	0.0042157
4786.25	0.529083	1.89209e-05
4790.57	0.529633	2.10571e-06
4794.95	0.52887	0.0167206
4799.27	0.528046	2.5116e-05
4803.59	0.529083	7.56836e-06
4807.97	0.529053	0.0133759
4812.29	0.529602	1.28784e-05
4816.61	0.528839	8.14819e-06
4820.99	0.528137	0.00977783
4825.31	0.528564	1.6449e-05
4829.63	0.528076	1.17493e-05
4834.01	0.528412	0.00256683
4838.33	0.52832	1.95618e-05
4842.65	0.529205	3.90625e-06
4847.03	0.529602	0.000875854
4851.35	0.528015	1.92871e-05
4855.67	0.52951	6.71387e-07
4860.05	0.529205	0.000436218
4864.37	0.528534	1.57471e-05
4868.69	0.52951	1.09863e-06
4873.07	0.528198	0.000256744
4877.39	0.529724	6.04248e-06
4881.71	0.529541	8.54492e-07
4886.09	0.528229	0.000165497
4890.41	0.528839	1.27563e-05
4894.73	0.52951	3.66211e-07
4899.11	0.529694	0.000104797
4903.43	0.528259	1.59607e-05
4907.75	0.528778	4.85229e-06
4912.13	0.529205	8.10242e-05
4916.45	0.529327	7.65991e-06
4920.77	0.529297	2.38037e-06
4925.15	0.528381	6.82678e-05
4929.47	0.528259	1.4801e-05
4933.79	0.528412	8.02612e-06
4938.17	0.529205	4.99878e-05
4942.49	0.528687	1.06506e-05
4946.81	0.528595	6.40869e-06
4951.19	0.528717	4.47083e-05
4955.51	0.528381	1.42822e-05
4959.85	-0.697327	-0.0240387
4964.21	0.529572	3.47595e-05
4968.53	0.528351	1.44043e-05
4972.87	-0.698029	-0.0202759
4977.23	0.528198	3.89099e-05
4981.55	0.52948	4.08936e-06
4985.89	-0.699127	-0.0175415
4990.25	0.52887	3.09143e-05
4994.57	0.529572	3.63159e-06
4998.91	-0.697754	-0.0154388
5003.27	0.529175	2.60925e-05
5007.59	0.529083	9.09424e-06
5011.95	-0.000891113	0.00779724
5016.29	0.529205	2.26135e-05
5020.61	0.528717	8.72803e-06
5024.97	0.000933838	0.00633057
5029.31	0.528351	2.92969e-05
5033.63	0.529694	1.98364e-06
5037.99	0.00100403	0.00518494
5042.33	0.529633	1.6571e-05
5046.65	0.528015	1.26343e-05
5051.01	0.000326538	0.00423187
5055.35	0.528076	2.50244e-05
5059.67	0.529694	1.00708e-06
5064.05	0.528992	0.0168762
5068.37	0.529572	1.42517e-05
5072.69	0.529053	5.49316e-06
5077.07	0.529053	0.0135376
5081.39	0.528229	2.13013e-05
5085.71	0.529053	2.59399e-06
5090.09	0.528381	0.0101349
5094.41	0.529053	1.69678e-05
5098.73	0.529053	2.44141e-06
5103.11	0.529144	0.00324127
5107.43	0.529755	1.08948e-05
5111.75	0.528229	1.20239e-05
5116.13	0.528809	0.00105194
5120.45	0.528961	1.59302e-05
5124.77	0.528442	1.04675e-05
5129.15	0.529602	0.000524597
5133.47	0.529022	1.297e-05
5137.79	0.52951	1.52588e-07
5142.17	0.529663	0.000299316
5146.49	0.528351	1.74561e-05
5150.81	0.528503	1.10168e-05
5155.19	0.528076	0.000199829
5159.51	0.528015	1.84631e-05
5163.83	0.529694	2.96021e-06
5168.21	0.528198	0.000134277
5172.53	0.529022	9.70459e-06
5176.85	0.52832	1.01929e-05
5181.23	0.528564	9.48486e-05
5185.55	0.528137	1.60828e-05
5189.87	0.528595	8.23975e-06
5194.25	0.528564	7.63245e-05
5198.57	0.529327	7.38525e-06
5202.89	0.529327	1.09863e-06
5207.27	0.528107	6.60095e-05
5211.59	0.529785	5.09644e-06
5215.91	0.528168	9.61304e-06
5220.29	0.528961	4.9469e-05
5224.61	0.527985	1.60217e-05
5228.95	-0.698029	-0.0242798
5233.31	0.528015	4.90112e-05
5237.63	0.529663	3.17383e-06
5241.97	-0.697449	-0.020575
5246.33	0.52948	3.28979e-05
5250.65	0.529358	6.2561e-06
5254.99	-0.698303	-0.0178711
5259.35	0.528717	3.49426e-05
5263.67	0.528534	1.12e-05
5268.01	-0.699158	-0.0157684
5272.37	0.528717	3.18298e-05
5276.69	0.527985	1.25732e-05
5281.05	-0.000949097	0.00754089
5285.39	0.529297	2.36206e-05
5289.71	0.529144	5.49316e-06
5294.07	-0.000564575	0.00612915
5298.41	0.52829	2.90222e-05
5302.73	0.528778	7.56836e-06
5307.09	-0.000753784	0.0050351
5311.43	0.528107	2.8717e-05
5315.75	0.529572	2.74658e-06
5320.11	0.000439453	0.00411499
5324.45	0.529633	1.44348e-05
5328.77	0.528259	1.1261e-05
5333.15	0.527405	0.0169495
5337.47	0.528137	2.46277e-05
5341.79	0.529602	2.56348e-06
5346.17	0.528961	0.0137146
5350.49	0.527954	2.43835e-05
5354.81	0.528168	1.16272e-05
5359.19	0.527771	0.010556
5363.51	0.528473	2.03552e-05
5367.83	0.529388	2.47192e-06
5372.21	0.528595	0.00466705
5376.53	0.528259	1.90735e-05
5380.85	0.52948	2.04468e-06
5385.23	0.529419	0.00127106
5389.55	0.528229	1.93787e-05
5393.87	0.528168	1.12305e-05
5398.25	0.528412	0.00064209
5402.57	0.529419	1.06201e-05
5406.89	0.529083	4.97437e-06
5411.27	0.529205	0.000367157
5415.59	0.52887	1.25427e-05
5419.91	0.528168	9.73511e-06
5424.29	0.528778	0.000236786
5428.61	0.528381	1.61743e-05
5432.93	0.529663	1.25122e-06
5437.31	0.52951	0.000152649
5441.63	0.528046	1.80969e-05
5445.95	0.529266	-7.93457e-07
5450.33	0.528503	0.000116943
5452.51	0.529266	3.44849e-06