Folder: electrochromicfilms/Edgar/20240529/20240529/electrodeposition_pulsed_potential_20240529_B (part 2)

File: pulses_2000_to_3000.txt
Time (s)	WE(1).Potential (V)	WE(1).Current (A)
2827.99	-0.698212	-0.0243988
2832.35	0.561401	3.08228e-06
2836.67	0.560791	1.67847e-06
2841.01	-0.699005	-0.0202209
2845.37	0.560516	9.67407e-06
2849.69	0.560699	1.92261e-06
2854.03	-0.697662	-0.017215
2858.39	0.561554	1.2207e-06
2862.71	0.561676	-3.17383e-06
2867.05	-0.697906	-0.0149292
2871.41	0.560699	7.84302e-06
2875.73	0.56012	6.34766e-06
2880.09	-0.000680542	0.00802917
2884.43	0.561218	2.41089e-06
2888.75	0.560242	4.82178e-06
2893.11	-0.00065918	0.0059671
2897.45	0.560852	3.8147e-06
2901.77	0.560059	5.79834e-06
2906.13	0.000906372	0.00437744
2910.47	0.56015	1.00403e-05
2914.79	0.560577	2.44141e-06
2919.15	-0.000427246	0.00315369
2923.49	0.56131	6.10352e-08
2927.81	0.561432	-5.09644e-06
2932.19	0.559418	0.0163879
2936.51	0.56073	2.28882e-06
2940.83	0.561432	-2.16675e-06
2945.21	0.559509	0.0124573
2949.53	0.56134	-2.28882e-06
2953.85	0.560089	4.66919e-06
2958.23	0.560516	0.0036499
2962.55	0.560547	5.00488e-06
2966.87	0.560059	5.27954e-06
2971.25	0.561584	0.000233185
2975.57	0.561279	-6.10352e-08
2979.89	0.561493	-3.9978e-06
2984.27	0.561188	6.75964e-05
2988.59	0.560333	4.63867e-06
2992.91	0.561554	-5.12695e-06
2997.29	0.560974	3.92456e-05
3001.61	0.560242	5.88989e-06
3005.93	0.560486	-2.10571e-06
3010.31	0.561493	2.45972e-05
3014.63	0.560455	1.2207e-06
3018.95	0.56012	5.82886e-06
3023.33	0.560272	2.83813e-05
3027.65	0.561584	-3.23486e-06
3031.97	0.560822	5.49316e-07
3036.35	0.560211	2.24609e-05
3040.67	0.56076	2.50244e-06
3044.99	0.561676	-5.0354e-06
3049.37	0.560852	1.72729e-05
3053.69	0.56012	6.95801e-06
3058.01	0.560181	5.37109e-06
3062.39	0.560059	1.9104e-05
3066.71	0.560974	-3.35693e-07
3071.03	0.561249	-4.76074e-06
3075.41	0.561005	1.1322e-05
3079.73	0.561493	-3.60107e-06
3084.05	0.561432	-4.02832e-06
3088.43	0.560669	1.20239e-05
3092.75	0.561432	-4.18091e-06
3097.09	-0.698547	-0.0245392
3101.45	0.560089	1.45569e-05
3105.77	0.56131	-1.7395e-06
3110.11	-0.698975	-0.0205414
3114.47	0.56131	5.5542e-06
3118.79	0.561462	-4.02832e-06
3123.13	-0.698608	-0.017569
3127.49	0.561401	1.58691e-06
3131.81	0.56012	6.04248e-06
3136.15	-0.697998	-0.0152954
3140.51	0.560883	4.54712e-06
3144.83	0.559998	7.17163e-06
3149.19	0.000671387	0.00778198
3153.53	0.560059	1.297e-05
3157.85	0.561005	-1.64795e-06
3162.21	-0.000497437	0.00584137
3166.55	0.560516	6.65283e-06
3170.87	0.560425	2.53296e-06
3175.23	-0.000167847	0.00432953
3179.57	0.560211	9.91821e-06
3183.89	0.561371	-2.92969e-06
3188.25	0.000827026	0.00313843
3192.59	0.561249	1.70898e-06
3196.91	0.560364	2.62451e-06
3201.29	0.559296	0.0165802
3205.61	0.560974	4.63867e-06
3209.93	0.561584	-5.67627e-06
3214.31	0.560669	0.0128174
3218.63	0.561279	-3.35693e-07
3222.95	0.560425	2.89917e-06
3227.33	0.56073	0.00688568
3231.65	0.56134	3.96729e-07
3235.97	0.561554	-4.11987e-06
3240.35	0.561584	0.000383301
3244.67	0.559906	7.26318e-06
3248.99	0.56134	-1.95313e-06
3253.37	0.561554	9.3689e-05
3257.69	0.561401	-2.83813e-06
3262.01	0.561279	-2.41089e-06
3266.39	0.560913	4.73022e-05
3270.71	0.561035	1.95313e-06
3275.03	0.561584	-5.67627e-06
3279.41	0.560547	3.34778e-05
3283.73	0.561127	-8.8501e-07
3288.05	0.560699	3.20435e-06
3292.43	0.561493	1.89209e-05
3296.75	0.561676	-1.0376e-06
3301.07	0.560364	4.15039e-06
3305.45	0.561005	1.90735e-05
3309.77	0.56015	6.74438e-06
3314.09	0.561279	-2.65503e-06
3318.47	0.56012	2.14844e-05
3322.79	0.560638	3.63159e-06
3327.11	0.560059	5.27954e-06
3331.49	0.56012	1.86462e-05
3335.81	0.561371	-3.20435e-06
3340.13	0.561646	-6.073e-06
3344.51	0.560181	1.54724e-05
3348.83	0.559998	6.04248e-06
3353.15	0.561462	-5.12695e-06
3357.53	0.560028	1.45874e-05
3361.85	0.560486	4.91333e-06
3366.19	-0.698242	-0.0247009
3370.55	0.560211	1.38245e-05
3374.87	0.56012	5.58472e-06
3379.21	-0.697693	-0.0207977
3383.57	0.560059	1.49231e-05
3387.89	0.561066	-8.54492e-07
3392.23	-0.698486	-0.0178802
3396.59	0.561401	2.19727e-06
3400.91	0.56015	6.92749e-06
3405.25	-0.699097	-0.0156219
3409.61	0.560028	1.28784e-05
3413.93	0.561554	-4.63867e-06
3418.29	0.000482178	0.00755005
3422.63	0.561615	1.46484e-06
3426.95	0.561493	-4.88281e-06
3431.31	-0.000274658	0.00569244
3435.65	0.56012	1.15662e-05
3439.97	0.560211	4.63867e-06
3444.33	0.000613403	0.00424622
3448.67	0.560822	6.71387e-06
3452.99	0.561432	-5.61523e-06
3457.35	-0.000372314	0.00310211
3461.69	0.560333	5.64575e-06
3466.01	0.561523	-5.0354e-06
3470.39	0.560883	0.0167145
3474.71	0.560303	8.54492e-06
3479.03	0.561432	-4.48608e-06
3483.41	0.56073	0.0131104
3487.73	0.560333	7.41577e-06
3492.05	0.561493	-2.86865e-06
3496.43	0.560425	0.00816345
3500.75	0.561005	3.479e-06
3505.07	0.560608	3.35693e-07
3509.45	0.56015	0.000579529
3513.77	0.559998	8.97217e-06
3518.09	0.561066	-2.7771e-06
3522.47	0.559998	0.00014502
3526.79	0.561401	-1.49536e-06
3531.11	0.560822	-9.46045e-07
3535.49	0.561401	5.28259e-05
3539.81	0.561584	-2.38037e-06
3544.13	0.561279	-4.57764e-07
3548.51	0.560089	3.93372e-05
3552.83	0.560272	6.68335e-06
3557.15	0.560364	3.05176e-06
3561.53	0.560089	3.02429e-05
3565.85	0.560059	8.91113e-06
3570.17	0.56015	4.73022e-06
3574.55	0.560516	2.2522e-05
3578.87	0.560425	5.58472e-06
3583.19	0.561523	-4.85229e-06
3587.57	0.560242	1.87073e-05
3591.89	0.561157	6.10352e-08
3596.21	0.56015	4.88281e-06
3600.59	0.561493	8.75854e-06
3604.91	0.560028	6.83594e-06
3609.23	0.561371	-4.57764e-06
3613.61	0.56015	1.54724e-05
3617.93	0.561493	-2.59399e-06
3622.25	0.561584	-5.15747e-06
3626.63	0.560272	1.25122e-05
3630.95	0.560699	-7.01904e-07
3635.29	-0.697723	-0.0247498
3639.65	0.560852	7.47681e-06
3643.97	0.560699	-1.28174e-06
3648.31	-0.698822	-0.0208984
3652.67	0.560028	1.3031e-05
3656.99	0.56012	6.16455e-06
3661.33	-0.697784	-0.0181213
3665.69	0.56012	1.0437e-05
3670.01	0.561615	-4.48608e-06
3674.35	-0.699188	-0.0158875
3678.71	0.56015	1.07422e-05
3683.03	0.560577	1.49536e-06
3687.39	0.000915527	0.00734436
3691.73	0.560669	7.44629e-06
3696.05	0.56134	-2.86865e-06
3700.41	0.000692749	0.00556213
3704.75	0.560883	4.82178e-06
3709.07	0.561493	-4.45557e-06
3713.43	7.32422e-05	0.00417603
3717.77	0.560669	5.70679e-06
3722.09	0.559937	7.38525e-06
3726.45	0.0009552	0.0030957
3730.79	0.560791	2.38037e-06
3735.11	0.560791	-6.40869e-07
3739.49	0.560272	0.0168365
3743.81	0.560944	1.0376e-06
3748.13	0.560364	3.90625e-06
3752.51	0.559998	0.0133606
3756.83	0.561188	1.00708e-06
3761.15	0.561523	-5.09644e-06
3765.53	0.559967	0.00887146
3769.85	0.560242	7.50732e-06
3774.17	0.560333	3.90625e-06
3778.55	0.559967	0.000785217
3782.87	0.560059	9.0332e-06
3787.19	0.561401	-4.57764e-06
3791.57	0.561432	0.000188782
3795.89	0.561188	-6.71387e-07
3800.21	0.561096	-3.93677e-06
3804.59	0.560059	7.98645e-05
3808.91	0.561493	-1.64795e-06
3813.23	0.56076	-1.28174e-06
3817.61	0.561127	3.80249e-05
3821.93	0.560059	7.41577e-06
3826.25	0.561676	-5.49316e-06
3830.63	0.56134	2.23083e-05
3834.95	0.56076	2.53296e-06
3839.27	0.560059	4.82178e-06
3843.65	0.560425	2.39868e-05
3847.97	0.559998	6.28662e-06
3852.29	0.560089	5.24902e-06
3856.67	0.560455	1.98669e-05
3860.99	0.559998	7.72095e-06
3865.31	0.560974	-2.56348e-06
3869.69	0.560883	1.28784e-05
3874.01	0.56012	6.89697e-06
3878.33	0.561371	-4.3335e-06
3882.71	0.559937	1.94702e-05
3887.03	0.560211	5.61523e-06
3891.35	0.560364	2.2583e-06
3895.73	0.560913	1.01318e-05
3900.05	0.561584	-3.63159e-06
3904.39	-0.697601	-0.0248779
3908.75	0.560333	1.25427e-05
3913.07	0.560089	7.01904e-06
3917.41	-0.698792	-0.0211731
3921.77	0.560089	1.29395e-05
3926.09	0.560242	6.01196e-06
3930.43	-0.698273	-0.0183807
3934.79	0.56073	7.17163e-06
3939.11	0.560486	4.21143e-06
3943.45	-0.698151	-0.0161499
3947.81	0.561188	4.69971e-06
3952.13	0.560028	7.17163e-06
3956.49	-0.000683594	0.00717865
3960.83	0.560425	7.50732e-06
3965.15	0.56073	4.21143e-06
3969.51	-0.000137329	0.0054541
3973.85	0.56134	1.64795e-06
3978.17	0.560822	3.05176e-07
3982.53	-0.000534058	0.00412384
3986.87	0.560333	1.01013e-05
3991.19	0.560883	1.0376e-06
3995.55	0.00022583	0.00306976
3999.89	0.560242	8.45337e-06
4004.21	0.560028	6.56128e-06
4008.59	0.55954	0.01698
4012.91	0.56073	5.98145e-06
4017.23	0.561584	-4.97437e-06
4021.61	0.559326	0.0135895
4025.93	0.560242	7.08008e-06
4030.25	0.56012	5.82886e-06
4034.63	0.560272	0.009552
4038.95	0.561523	-2.13623e-06
4043.27	0.561066	-1.61743e-06
4047.65	0.561188	0.00108246
4051.97	0.56073	3.14331e-06
4056.29	0.561554	-4.36401e-06
4060.67	0.56073	0.000264496
4064.99	0.561554	-3.14331e-06
4069.31	0.561249	-2.71606e-06
4073.69	0.56015	0.000102753
4078.01	0.561432	-3.2959e-06
4082.33	0.560913	7.01904e-07
4086.71	0.56015	5.27649e-05
4091.03	0.560974	-5.49316e-07
4095.35	0.561432	-4.66919e-06
4099.73	0.560089	3.55835e-05
4104.05	0.561188	-3.96729e-07
4108.37	0.561127	-2.19727e-06
4112.75	0.56015	2.81982e-05
4117.07	0.560211	6.43921e-06
4121.39	0.560028	6.50024e-06
4125.77	0.561554	1.35193e-05
4127.95	0.560547	2.86865e-06

File: pulses_3000_to_4000.txt
Time (s)	WE(1).Potential (V)	WE(1).Current (A)
4150.8	-0.698334	-0.0250183
4155.16	0.560089	1.48621e-05
4159.48	0.559906	6.37817e-06
4163.82	-0.698303	-0.0213593
4168.18	0.560944	8.5144e-06
4172.5	0.560211	2.89917e-06
4176.84	-0.698669	-0.0186035
4181.2	0.561646	1.86157e-06
4185.52	0.560944	-3.05176e-08
4189.86	-0.698364	-0.01640625
4194.22	0.561127	6.80542e-06
4198.54	0.561584	-2.96021e-06
4202.9	-0.000567627	0.00697693
4207.24	0.559937	1.03149e-05
4211.56	0.560059	8.30078e-06
4215.92	-0.000427246	0.00530609
4220.26	0.561401	5.58472e-06
4224.58	0.561432	-2.56348e-06
4228.94	0.000845337	0.00401245
4233.28	0.559998	1.19324e-05
4237.6	0.561462	-2.74658e-06
4241.96	0.000842285	0.00300842
4246.3	0.559937	1.04675e-05
4250.62	0.560089	5.79834e-06
4255	0.56076	0.0170105
4259.32	0.56076	2.41089e-06
4263.64	0.561157	-1.58691e-06
4268.02	0.559418	0.0137115
4272.34	0.560059	9.91821e-06
4276.66	0.561523	-4.08936e-06
4281.04	0.56015	0.00990295
4285.36	0.560547	6.89697e-06
4289.68	0.560089	6.53076e-06
4294.06	0.560089	0.00133789
4298.38	0.56076	4.05884e-06
4302.7	0.560425	2.44141e-06
4307.08	0.56073	0.000324432
4311.4	0.560394	7.47681e-06
4315.72	0.560028	4.85229e-06
4320.1	0.561401	0.000117889
4324.42	0.560394	4.45557e-06
4328.74	0.560944	1.83105e-07
4333.12	0.56076	5.43823e-05
4337.44	0.560974	1.7395e-06
4341.76	0.560059	6.37817e-06
4346.14	0.560303	4.03748e-05
4350.46	0.56134	-1.46484e-06
4354.78	0.560089	6.13403e-06
4359.16	0.561432	1.86768e-05
4363.48	0.560303	5.34058e-06
4367.8	0.56015	4.94385e-06
4372.18	0.561401	1.35193e-05
4376.5	0.560516	3.35693e-06
4380.82	0.560242	4.36401e-06
4385.2	0.560181	1.82495e-05
4389.52	0.560242	5.46265e-06
4393.84	0.560974	-3.05176e-07
4398.22	0.559998	1.85852e-05
4402.54	0.560669	2.62451e-06
4406.86	0.560364	2.10571e-06
4411.24	0.560089	1.68152e-05
4415.56	0.559998	5.49316e-06
4419.9	-0.698303	-0.0250824
4424.26	0.560791	1.11694e-05
4428.58	0.560974	1.19019e-06
4432.92	-0.697784	-0.0215515
4437.28	0.561127	6.28662e-06
4441.6	0.559967	5.70679e-06
4445.94	-0.698975	-0.0188202
4450.3	0.560211	1.16577e-05
4454.62	0.561523	-6.10352e-06
4458.96	-0.697723	-0.0166534
4463.32	0.560272	1.10474e-05
4467.64	0.561096	-6.10352e-07
4472	0.000750732	0.00681458
4476.34	0.561554	1.19019e-06
4480.66	0.561554	-4.15039e-06
4485.02	-0.000335693	0.00521179
4489.36	0.56012	1.16882e-05
4493.68	0.559998	6.28662e-06
4498.04	0.000656128	0.0039682
4502.38	0.560516	7.20215e-06
4506.7	0.560913	-1.98364e-06
4511.06	-0.000265503	0.00299164
4515.4	0.560028	1.00708e-05
4519.72	0.56012	5.49316e-06
4524.1	0.559692	0.0171143
4528.42	0.560028	1.0376e-05
4532.74	0.561523	-5.24902e-06
4537.12	0.559906	0.0138702
4541.44	0.560486	7.50732e-06
4545.76	0.560394	3.26538e-06
4550.14	0.559998	0.0103149
4554.46	0.56073	5.49316e-06
4558.78	0.560699	-5.18799e-07
4563.16	0.561554	0.00171112
4567.48	0.560425	5.37109e-06
4571.8	0.560974	-1.28174e-06
4576.18	0.560669	0.000403961
4580.5	0.560272	7.01904e-06
4584.82	0.560303	3.96729e-06
4589.2	0.56134	0.000144897
4593.52	0.561554	-3.66211e-07
4597.84	0.561127	-1.43433e-06
4602.22	0.560181	7.18384e-05
4606.54	0.560425	4.82178e-06
4610.86	0.560303	3.75366e-06
4615.24	0.560211	4.53796e-05
4619.56	0.561218	2.13623e-07
4623.88	0.561523	-5.46265e-06
4628.26	0.561676	2.2583e-05
4632.58	0.559967	7.2937e-06
4636.9	0.56012	6.28662e-06
4641.28	0.560944	1.92871e-05
4645.6	0.560028	7.62939e-06
4649.92	0.561371	-4.57764e-06
4654.3	0.560394	1.80359e-05
4658.62	0.560852	2.80762e-06
4662.94	0.560303	3.35693e-06
4667.32	0.561523	7.8125e-06
4671.64	0.560944	-1.98364e-06
4675.96	0.561066	-1.77002e-06
4680.34	0.560547	1.35803e-05
4684.66	0.56073	3.84521e-06
4689	-0.697632	-0.025058
4693.36	0.560303	1.28174e-05
4697.68	0.560852	4.27246e-07
4702.02	-0.697388	-0.0216309
4706.38	0.561493	2.92969e-06
4710.7	0.560028	6.46973e-06
4715.04	-0.69873	-0.0189697
4719.4	0.561493	3.63159e-06
4723.72	0.560059	6.19507e-06
4728.06	-0.698822	-0.0168091
4732.42	0.560364	9.42993e-06
4736.74	0.560852	1.06812e-06
4741.1	-0.00022583	0.00666199
4745.44	0.560394	7.04956e-06
4749.76	0.56012	5.92041e-06
4754.12	0.00067749	0.00509033
4758.46	0.560089	1.12305e-05
4762.78	0.560242	5.0354e-06
4767.14	-0.000314331	0.00388611
4771.48	0.561371	7.32422e-07
4775.8	0.560455	1.92261e-06
4780.16	0.0009765625	0.00292664
4784.5	0.561707	-9.76562e-07
4788.82	0.560059	6.50024e-06
4793.2	0.560577	0.0171478
4797.52	0.561615	-2.22778e-06
4801.84	0.560272	4.21143e-06
4806.22	0.559692	0.0139893
4810.54	0.561676	-1.95313e-06
4814.86	0.560608	1.28174e-06
4819.24	0.559601	0.0105438
4823.56	0.561584	-2.92969e-06
4827.88	0.560364	2.83813e-06
4832.26	0.561157	0.00205627
4836.58	0.559998	8.60596e-06
4840.9	0.561584	-5.64575e-06
4845.28	0.561401	0.000484009
4849.6	0.561523	-1.19019e-06
4853.92	0.561676	-2.99072e-06
4858.3	0.560364	0.000187622
4862.62	0.560303	5.76782e-06
4866.94	0.561035	-2.89917e-06
4871.32	0.560883	8.38928e-05
4875.64	0.56015	7.53784e-06
4879.96	0.560486	1.83105e-06
4884.34	0.561493	4.1626e-05
4888.66	0.560303	7.1106e-06
4892.98	0.560455	2.62451e-06
4897.36	0.561523	2.55737e-05
4901.68	0.561127	3.66211e-07
4906	0.561157	-2.99072e-06
4910.38	0.561005	1.77002e-05
4914.7	0.560028	7.14111e-06
4919.02	0.561462	-5.09644e-06
4923.4	0.560699	1.47095e-05
4927.72	0.561249	-2.16675e-06
4932.04	0.560303	3.23486e-06
4936.42	0.561127	1.26648e-05
4940.74	0.560181	3.72314e-06
4945.06	0.561188	-3.84521e-06
4949.44	0.560211	1.72729e-05
4953.76	0.560089	3.41797e-06
4958.1	-0.69809	-0.0251892
4962.46	0.561554	5.52368e-06
4966.78	0.559998	7.1106e-06
4971.12	-0.697479	-0.0217804
4975.48	0.560242	1.3916e-05
4979.8	0.561554	-3.479e-06
4984.14	-0.697479	-0.0191589
4988.5	0.56015	1.40076e-05
4992.82	0.561066	3.05176e-08
4997.16	-0.697632	-0.0170227
5001.52	0.561401	2.68555e-06
5005.84	0.561005	1.12915e-06
5010.2	0.000622559	0.00647919
5014.54	0.559967	1.15356e-05
5018.86	0.56134	-2.83813e-06
5023.22	0.000350952	0.00495605
5027.56	0.561584	1.19019e-06
5031.88	0.561096	-7.93457e-07
5036.24	-0.00045166	0.00379761
5040.58	0.561523	-6.10352e-08
5044.9	0.560242	5.85937e-06
5049.26	0.000814819	0.00287781
5053.6	0.560211	8.48389e-06
5057.92	0.560608	2.01416e-06
5062.3	0.559387	0.0172028
5066.62	0.560791	4.39453e-06
5070.94	0.561646	-3.479e-06
5075.32	0.560394	0.0140961
5079.64	0.561371	1.5564e-06
5083.96	0.560211	5.95093e-06
5088.34	0.560516	0.0108612
5092.66	0.560974	5.18799e-06
5096.98	0.560974	5.79834e-07
5101.36	0.560455	0.00279724
5105.68	0.560059	9.06372e-06
5110	0.560028	7.59888e-06
5114.38	0.56073	0.000606689
5118.7	0.561401	-6.10352e-07
5123.02	0.56131	-2.19727e-06
5127.4	0.560822	0.000228821
5131.72	0.56131	-1.7395e-06
5136.04	0.561279	-6.40869e-07
5140.42	0.56015	0.000108612
5144.74	0.561462	-2.74658e-06
5149.06	0.560181	4.02832e-06
5153.44	0.560425	6.04248e-05
5157.76	0.560974	1.58691e-06
5162.08	0.56012	5.31006e-06
5166.46	0.560272	3.92456e-05
5170.78	0.560913	1.83105e-07
5175.1	0.560791	-5.18799e-07
5179.48	0.560577	2.47803e-05
5183.8	0.559967	7.20215e-06
5188.12	0.561462	-5.06592e-06
5192.5	0.559937	2.23999e-05
5196.82	0.560486	1.64795e-06
5201.14	0.560028	6.40869e-06
5205.52	0.561462	9.33838e-06
5209.84	0.561249	2.13623e-07
5214.16	0.561157	-2.68555e-06
5218.54	0.560669	1.31226e-05
5222.86	0.560059	3.20435e-06
5227.2	-0.698517	-0.0252411
5231.56	0.561066	9.42993e-06
5235.88	0.560364	4.82178e-06
5240.22	-0.6987	-0.0218964
5244.58	0.561554	4.3335e-06
5248.9	0.561371	-2.74658e-06
5253.24	-0.697784	-0.0193207
5257.6	0.560028	1.35803e-05
5261.92	0.560181	6.37817e-06
5266.26	-0.697845	-0.0172028
5270.62	0.561371	2.41089e-06
5274.94	0.561523	-3.66211e-06
5279.3	-0.000427246	0.00634125
5283.64	0.56012	1.23901e-05
5287.96	0.560608	2.01416e-06
5292.32	-0.000527954	0.00486572
5296.66	0.56131	3.60107e-06
5300.98	0.561493	-4.79126e-06
5305.34	0.000778198	0.00372467
5309.68	0.561127	2.38037e-06
5314	0.56012	4.27246e-06
5318.36	0.000143433	0.00284668
5322.7	0.560425	9.91821e-06
5327.02	0.560028	6.10352e-06
5331.4	0.559265	0.0172577
5335.72	0.561737	-5.18799e-07
5340.04	0.56134	-1.83105e-06
5344.42	0.560913	0.014209
5348.74	0.560242	5.43213e-06
5353.06	0.560394	2.65503e-06
5357.44	0.561096	0.0110779
5361.76	0.559967	9.765625E-06
5366.08	0.561493	-4.76074e-06
5370.46	0.560028	0.00359436
5374.78	0.560791	3.11279e-06
5379.1	0.560303	4.48608e-06
5383.48	0.559937	0.000717163
5387.8	0.561615	-2.62451e-06
5392.12	0.56073	-1.2207e-06
5396.5	0.560028	0.000274506
5400.82	0.56012	8.88062e-06
5405.14	0.559906	4.63867e-06
5409.52	0.561401	0.000120117
5413.84	0.560028	9.27734e-06
5418.16	0.560028	6.04248e-06
5422.54	0.561554	6.02722e-05
5426.86	0.559998	8.20923e-06
5431.18	0.560394	2.96021e-06
5435.56	0.561157	3.82996e-05
5439.88	0.560089	7.1106e-06
5444.2	0.56015	4.82178e-06
5448.58	0.561523	2.15454e-05
5450.76	0.560089	3.93677e-06