Folder: electrochromicfilms/Edgar/20240503/20240503/electrodeposition_pulsed_potential_20240503_A

File: OCP_1
Time (s)	WE(1).Potential (V)
1.96074	0.567322
2.96074	0.567627
3.96074	0.567627
4.96074	0.567627
5.96074	0.567627
6.96074	0.567932
7.96074	0.567932
8.96074	0.567932
9.96074	0.568237
10.9607	0.568237
11.9607	0.568237
12.9607	0.568542
13.9607	0.568542
14.9607	0.568542
15.9607	0.568542
16.9607	0.568848
17.9607	0.568848
18.9607	0.568848
19.9607	0.569153
20.9607	0.569153
21.9607	0.569153
22.9607	0.569458
23.9607	0.569458
24.9607	0.569458
25.9607	0.569458
26.9607	0.569763
27.9607	0.569763
28.9607	0.569763
29.9607	0.570068
30.9607	0.570068
31.9607	0.570068
32.9607	0.570068
33.9607	0.570374
34.9607	0.570374
35.9607	0.570374
36.9607	0.570679
37.9607	0.570679
38.9607	0.570679
39.9607	0.570679
40.9607	0.570984
41.9607	0.570984
42.9607	0.570984
43.9607	0.570984
44.9607	0.571289
45.9607	0.571289
46.9607	0.571289
47.9607	0.571289
48.9607	0.571594
49.9607	0.571594
50.9607	0.571594
51.9607	0.571899
52.9607	0.571899
53.9607	0.571899
54.9607	0.571899
55.9607	0.572205
56.9607	0.572205
57.9607	0.572205
58.9607	0.57251
59.9607	0.57251
60.9607	0.57251
61.9607	0.57251
62.9607	0.572815
63.9607	0.572815
64.9607	0.572815
65.9607	0.572815
66.9607	0.57312
67.9607	0.57312
68.9607	0.57312
69.9607	0.57312
70.9607	0.573425
71.9607	0.573425
72.9607	0.573425
73.9607	0.57373
74.9607	0.57373
75.9607	0.57373
76.9607	0.57373
77.9607	0.574036
78.9607	0.574036
79.9607	0.574036
80.9607	0.574036
81.9607	0.574341
82.9607	0.574341
83.9607	0.574341
84.9607	0.574341
85.9607	0.574646
86.9607	0.574646
87.9607	0.574646
88.9607	0.574646
89.9607	0.574951
90.9607	0.574951
91.9607	0.574951
92.9607	0.575256
93.9607	0.575256
94.9607	0.575256
95.9607	0.575256
96.9607	0.575562
97.9607	0.575562
98.9607	0.575562
99.9607	0.575562
100.961	0.575867
101.961	0.575867
102.961	0.575867
103.961	0.575867
104.961	0.576172
105.961	0.576172
106.961	0.576172
107.961	0.576477
108.961	0.576477
109.961	0.576477
110.961	0.576477
111.961	0.576782
112.961	0.576782
113.961	0.576782
114.961	0.576782
115.961	0.577087
116.961	0.577087
117.961	0.577087
118.961	0.577087
119.961	0.577393
120.961	0.577393
121.961	0.577393
122.961	0.577393
123.961	0.577698
124.961	0.577698
125.961	0.577698
126.961	0.577698
127.961	0.578003
128.961	0.578003
129.961	0.578003
130.961	0.578003
131.961	0.578308
132.961	0.578308
133.961	0.578308
134.961	0.578308
135.961	0.578613
136.961	0.578613
137.961	0.578613
138.961	0.578613
139.961	0.578918
140.961	0.578918
141.961	0.578918
142.961	0.578918
143.961	0.579224
144.961	0.579224
145.961	0.579224
146.961	0.579224
147.961	0.579224
148.961	0.579529
149.961	0.579529
150.961	0.579529
151.961	0.579529
152.961	0.579834
153.961	0.579834
154.961	0.579834
155.961	0.579834
156.961	0.580139
157.961	0.580139
158.961	0.580139
159.961	0.580139
160.961	0.580444
161.961	0.580444
162.961	0.580444
163.961	0.580444
164.961	0.580444
165.961	0.58075
166.961	0.58075
167.961	0.58075
168.961	0.58075
169.961	0.581055
170.961	0.581055
171.961	0.581055
172.961	0.581055
173.961	0.58136
174.961	0.58136
175.961	0.58136
176.961	0.58136
177.961	0.581665
178.961	0.581665
179.961	0.581665
180.961	0.581665

File: OCP_3
Time (s)	WE(1).Potential (V)
5480.15	0.574646
5481.15	0.567627
5482.15	0.561218
5483.15	0.555115
5484.15	0.549622
5485.15	0.544434
5486.15	0.539551
5487.15	0.534973
5488.15	0.531006
5489.15	0.527039
5490.15	0.523376
5491.15	0.52002
5492.15	0.516968
5493.15	0.513916
5494.15	0.511169
5495.15	0.508728
5496.15	0.506287
5497.15	0.50415
5498.15	0.502014
5499.15	0.500183
5500.15	0.498322
5501.15	0.496735
5502.15	0.495239
5503.15	0.493835
5504.15	0.492554
5505.15	0.491364
5506.15	0.490295
5507.15	0.489288
5508.15	0.488373
5509.15	0.487518
5510.15	0.486725
5511.15	0.485962
5512.15	0.485352
5513.15	0.484741
5514.15	0.484192
5515.15	0.483673
5516.15	0.483185
5517.15	0.482758
5518.15	0.482361
5519.15	0.482025
5520.15	0.48172
5521.15	0.481415
5522.15	0.481171
5523.15	0.480927
5524.15	0.480682
5525.15	0.480499
5526.15	0.480286
5527.15	0.480103
5528.15	0.47995
5529.15	0.479828
5530.15	0.479706
5531.15	0.479584
5532.15	0.479462
5533.15	0.47937
5534.15	0.479309
5535.15	0.479248
5536.15	0.479156
5537.15	0.479126
5538.15	0.479095
5539.15	0.479034
5540.15	0.479004
5541.15	0.478973
5542.15	0.478973
5543.15	0.478943
5544.15	0.478912
5545.15	0.478882
5546.15	0.478882
5547.15	0.478851
5548.15	0.478851
5549.15	0.478851
5550.15	0.478851
5551.15	0.478851
5552.15	0.478851
5553.15	0.478882
5554.15	0.478912
5555.15	0.478912
5556.15	0.478912
5557.15	0.478943
5558.15	0.478973
5559.15	0.479004
5560.15	0.479004
5561.15	0.479065
5562.15	0.479095
5563.15	0.479126
5564.15	0.479156
5565.15	0.479187
5566.15	0.479218
5567.15	0.479248
5568.15	0.479279
5569.15	0.479309
5570.15	0.47937
5571.15	0.479431
5572.15	0.479462
5573.15	0.479492
5574.15	0.479553
5575.15	0.479614
5576.15	0.479645
5577.15	0.479706
5578.15	0.479767
5579.15	0.479797
5580.15	0.479828
5581.15	0.479889
5582.15	0.479919
5583.15	0.47998
5584.15	0.480042
5585.15	0.480103
5586.15	0.480133
5587.15	0.480194
5588.15	0.480194
5589.15	0.480255
5590.15	0.480286
5591.15	0.480286
5592.15	0.480316
5593.15	0.480377
5594.15	0.480408
5595.15	0.480438
5596.15	0.480469
5597.15	0.48053
5598.15	0.48056
5599.15	0.48056
5600.15	0.480621
5601.15	0.480652
5602.15	0.480652
5603.15	0.480682
5604.15	0.480682
5605.15	0.480713
5606.15	0.480682
5607.15	0.480713
5608.15	0.480713
5609.15	0.480743
5610.15	0.480774
5611.15	0.480774
5612.15	0.480804
5613.15	0.480865
5614.15	0.480896
5615.15	0.480957
5616.15	0.480988
5617.15	0.481018
5618.15	0.481049
5619.15	0.481079
5620.15	0.48114
5621.15	0.481171
5622.15	0.481232
5623.15	0.481262
5624.15	0.481293
5625.15	0.481323
5626.15	0.481323
5627.15	0.481354
5628.15	0.481415
5629.15	0.481445
5630.15	0.481506
5631.15	0.481537
5632.15	0.481567
5633.15	0.481567
5634.15	0.481598
5635.15	0.481628
5636.15	0.481628
5637.15	0.481598
5638.15	0.481628
5639.15	0.481659
5640.15	0.481659
5641.15	0.481689
5642.15	0.48172
5643.15	0.48175
5644.15	0.481781
5645.15	0.481781
5646.15	0.481812
5647.15	0.481842
5648.15	0.481812
5649.15	0.481842
5650.15	0.481812
5651.15	0.481812
5652.15	0.481812
5653.15	0.481842
5654.15	0.481842
5655.15	0.481873
5656.15	0.481903
5657.15	0.481903
5658.15	0.481903
5659.15	0.481903

File: pulses_0_to_1000.txt
Time (s)	WE(1).Potential (V)	WE(1).Current (A)
181.69	-0.698334	-0.00332825
186.05	0.582275	-8.63647e-06
190.37	0.582306	-9.49097e-06
194.71	-0.698364	-0.00275879
199.07	0.582214	-6.16455e-06
203.39	0.582275	-9.33838e-06
207.73	-0.698395	-0.00272583
212.09	0.582336	-4.02832e-06
216.41	0.582336	-7.72095e-06
220.75	-0.698334	-0.00271545
225.11	0.582275	-4.69971e-06
229.43	0.582336	-6.2561e-06
233.79	0.0013092	0.000822754
238.13	0.582306	-5.27954e-06
242.45	0.582275	-7.90405e-06
246.81	0.00120544	0.000176147
251.15	0.582214	-4.88281e-06
255.47	0.582336	-7.08008e-06
259.83	0.00121155	7.65686e-05
264.17	0.582306	-4.5166e-06
268.49	0.582275	-7.75146e-06
272.85	0.00121765	3.77197e-05
277.19	0.582275	-5.49316e-06
281.51	0.582275	-7.53784e-06
285.89	0.582336	7.35779e-05
290.21	0.582275	-6.86646e-06
294.53	0.582306	-8.02612e-06
298.91	0.582306	3.27148e-05
303.23	0.582245	-6.37817e-06
307.55	0.582306	-8.30078e-06
311.93	0.582275	1.9165e-05
316.25	0.582306	-5.49316e-06
320.57	0.582306	-8.14819e-06
324.95	0.582275	1.06812e-05
329.27	0.582245	-6.86646e-06
333.59	0.582336	-8.14819e-06
337.97	0.582245	7.47681e-06
342.29	0.582214	-6.98853e-06
346.61	0.582336	-8.72803e-06
350.99	0.582245	4.24194e-06
355.31	0.582245	-7.20215e-06
359.63	0.582306	-9.21631e-06
364.01	0.582245	2.19727e-06
368.33	0.582336	-6.71387e-06
372.65	0.582275	-8.88062e-06
377.03	0.582245	4.27246e-07
381.35	0.582336	-7.59888e-06
385.67	0.582184	-8.3313e-06
390.05	0.582245	-9.46045e-07
394.37	0.582275	-8.23975e-06
398.69	0.582245	-8.94165e-06
403.07	0.582275	-1.37329e-06
407.39	0.582214	-7.8125e-06
411.71	0.582275	-9.70459e-06
416.09	0.582306	-2.62451e-06
420.41	0.582306	-7.08008e-06
424.73	0.582275	-8.08716e-06
429.11	0.582306	-3.9978e-06
433.43	0.582336	-7.23267e-06
437.75	0.582275	-8.66699e-06
442.13	0.582184	-4.36401e-06
446.45	0.582275	-8.78906e-06
450.79	-0.698059	-0.00865784
455.15	0.582245	-4.45557e-06
459.47	0.582214	-8.8501e-06
463.81	-0.698212	-0.00561646
468.17	0.582275	-4.3335e-06
472.49	0.582214	-7.69043e-06
476.83	-0.698212	-0.00445038
481.19	0.582184	-4.85229e-06
485.51	0.582245	-6.92749e-06
489.85	-0.698334	-0.00388489
494.21	0.582245	-5.34058e-06
498.53	0.582275	-8.39233e-06
502.89	0.000967407	0.00782471
507.23	0.582245	-5.70679e-06
511.55	0.582306	-8.8501e-06
515.91	0.00122986	0.00299072
520.25	0.582306	-6.50024e-06
524.57	0.582214	-8.30078e-06
528.93	0.00125427	0.00085907
533.27	0.582245	-6.22559e-06
537.59	0.582275	-8.14819e-06
541.95	0.00119019	0.000237183
546.29	0.582214	-6.83594e-06
550.61	0.582336	-8.60596e-06
554.99	0.582245	0.000115143
559.31	0.582306	-6.92749e-06
563.63	0.582275	-9.0332e-06
568.01	0.582275	4.71191e-05
572.33	0.582214	-5.88989e-06
576.65	0.582275	-8.57544e-06
581.03	0.582275	2.74963e-05
585.35	0.582275	-7.23267e-06
589.67	0.582245	-8.14819e-06
594.05	0.582245	1.75781e-05
598.37	0.582275	-7.93457e-06
602.69	0.582245	-8.17871e-06
607.07	0.582336	1.24512e-05
611.39	0.582245	-6.68335e-06
615.71	0.582214	-8.39233e-06
620.09	0.582306	7.99561e-06
624.41	0.582336	-6.13403e-06
628.73	0.582275	-8.45337e-06
633.11	0.582214	5.00488e-06
637.43	0.582275	-7.04956e-06
641.75	0.582275	-7.53784e-06
646.13	0.582245	4.39453e-06
650.45	0.582245	-7.84302e-06
654.77	0.582245	-8.78906e-06
659.15	0.582184	1.28174e-06
663.47	0.582275	-7.53784e-06
667.79	0.582275	-8.08716e-06
672.17	0.582245	1.34277e-06
676.49	0.582245	-7.2937e-06
680.81	0.582275	-9.46045e-06
685.19	0.582245	3.05176e-07
689.51	0.582306	-7.20215e-06
693.83	0.582245	-7.41577e-06
698.21	0.582245	-1.83105e-07
702.53	0.582245	-7.53784e-06
706.85	0.582245	-8.81958e-06
711.23	0.582275	-6.71387e-07
715.55	0.582214	-8.05664e-06
719.89	-0.697968	-0.0120789
724.25	0.582245	-1.37329e-06
728.57	0.582275	-7.2937e-06
732.91	-0.698151	-0.00804443
737.27	0.582245	-3.11279e-06
741.59	0.582306	-6.43921e-06
745.93	-0.698151	-0.00619598
750.29	0.582214	-3.78418e-06
754.61	0.582184	-7.93457e-06
758.95	-0.698151	-0.00519775
763.31	0.582214	-3.8147e-06
767.63	0.582245	-7.65991e-06
771.99	0.000961304	0.00957642
776.33	0.582245	-3.84521e-06
780.651	0.582214	-8.08716e-06
785.011	0.00115356	0.00550812
789.351	0.582245	-4.24194e-06
793.671	0.582245	-8.39233e-06
798.031	0.00120544	0.00274811
802.371	0.582275	-3.75366e-06
806.691	0.582275	-7.17163e-06
811.051	0.00124817	0.00121094
815.391	0.582275	-5.0354e-06
819.711	0.582245	-6.83594e-06
824.091	0.582336	0.00021701
828.411	0.582245	-4.66919e-06
832.731	0.582275	-7.87354e-06
837.111	0.582306	8.13599e-05
841.431	0.582214	-4.36401e-06
845.751	0.582275	-9.18579e-06
850.131	0.582245	4.73328e-05
854.451	0.582214	-4.63867e-06
858.771	0.582245	-7.32422e-06
863.151	0.582245	3.20435e-05
867.471	0.582275	-5.21851e-06
871.791	0.582275	-7.41577e-06
876.171	0.582214	2.2644e-05
880.491	0.582336	-5.00488e-06
884.811	0.582245	-8.02612e-06
889.191	0.582184	1.68457e-05
893.511	0.582306	-6.98853e-06
897.831	0.582275	-8.05664e-06
902.211	0.582214	1.43433e-05
906.531	0.582336	-5.61523e-06
910.851	0.582214	-9.0332e-06
915.231	0.582245	1.02234e-05
919.551	0.582306	-5.64575e-06
923.871	0.582275	-8.20923e-06
928.251	0.582153	7.72095e-06
932.571	0.582245	-5.40161e-06
936.891	0.582214	-7.20215e-06
941.271	0.582245	5.95093e-06
945.591	0.582214	-7.50732e-06
949.911	0.582275	-8.08716e-06
954.291	0.582245	3.66211e-06
958.611	0.582245	-6.62231e-06
962.931	0.582275	-7.38525e-06
967.311	0.582306	3.50952e-06
971.631	0.582245	-6.04248e-06
975.951	0.582275	-7.90405e-06
980.331	0.582214	2.71606e-06
984.651	0.582275	-6.10352e-06
988.991	-0.697784	-0.0142792
993.351	0.582245	7.62939e-07
997.671	0.582245	-5.95093e-06
1002.01	-0.697998	-0.0101349
1006.37	0.582245	6.10352e-07
1010.69	0.582306	-7.1106e-06
1015.03	-0.69812	-0.0078186
1019.39	0.582245	-5.79834e-07
1023.71	0.582245	-6.04248e-06
1028.05	-0.69812	-0.00649323
1032.41	0.582245	6.10352e-08
1036.73	0.582214	-6.53076e-06
1041.09	0.000924683	0.0101624
1045.43	0.582245	-2.01416e-06
1049.75	0.582306	-6.53076e-06
1054.11	0.00110474	0.00658997
1058.45	0.582184	-1.70898e-06
1062.77	0.582245	-5.95093e-06
1067.13	0.00121155	0.00417419
1071.47	0.582245	-1.28174e-06
1075.79	0.582306	-7.59888e-06
1080.15	0.00123291	0.0023468
1084.49	0.582214	-2.65503e-06
1088.81	0.582245	-7.44629e-06
1093.19	0.582336	0.000483307
1097.51	0.582214	-2.59399e-06
1101.83	0.582245	-5.79834e-06
1106.21	0.582245	0.000128754
1110.53	0.582214	-1.86157e-06
1114.85	0.582245	-6.71387e-06
1119.23	0.582214	7.13501e-05
1123.55	0.582214	-3.26538e-06
1127.87	0.582306	-6.89697e-06
1132.25	0.582184	4.77905e-05
1136.57	0.582214	-4.36401e-06
1140.89	0.582245	-7.38525e-06
1145.27	0.582275	3.6499e-05
1149.59	0.582275	-3.57056e-06
1153.91	0.582306	-7.50732e-06
1158.29	0.582275	2.75269e-05
1162.61	0.582214	-3.08228e-06
1166.93	0.582245	-8.27026e-06
1171.31	0.582275	2.01721e-05
1175.63	0.582184	-3.14331e-06
1179.95	0.582275	-6.83594e-06
1184.33	0.582275	1.72119e-05
1188.65	0.582275	-4.18091e-06
1192.97	0.582275	-6.31714e-06
1197.35	0.582306	1.3092e-05
1201.67	0.582275	-3.35693e-06
1205.99	0.582306	-6.04248e-06
1210.37	0.582275	1.19019e-05
1214.69	0.582214	-3.69263e-06
1219.01	0.582214	-5.95093e-06
1223.39	0.582275	9.58252e-06
1227.71	0.582245	-3.84521e-06
1232.03	0.582214	-6.71387e-06
1236.41	0.582275	7.1106e-06
1240.73	0.582275	-4.66919e-06
1245.05	0.582184	-6.62231e-06
1249.43	0.582214	5.64575e-06
1253.75	0.582275	-4.76074e-06
1258.09	-0.697571	-0.0158203
1262.45	0.582184	4.05884e-06
1266.77	0.582275	-4.76074e-06
1271.11	-0.697815	-0.0118164
1275.47	0.582214	4.05884e-06
1279.79	0.582245	-5.61523e-06
1284.13	-0.698029	-0.00926208
1288.49	0.582214	3.08228e-06
1292.81	0.582275	-6.10352e-06
1297.15	-0.698029	-0.00768738
1301.51	0.582245	1.70898e-06
1305.83	0.582245	-5.58472e-06
1310.19	0.000869751	0.0102448
1314.53	0.582245	2.2583e-06
1318.85	0.582245	-4.79126e-06
1323.21	0.00112305	0.00708893
1327.55	0.582275	-2.13623e-07
1331.87	0.582184	-5.27954e-06
1336.23	0.00110474	0.0049408
1340.57	0.582245	-1.34277e-06
1344.89	0.582275	-6.10352e-06
1349.25	0.00120544	0.00320496
1353.59	0.582245	-5.49316e-07
1357.91	0.582275	-6.19507e-06
1362.29	0.58252	0.00306732
1366.61	0.582245	1.52588e-07
1370.93	0.582245	-7.41577e-06
1375.31	0.582306	0.000202606
1379.63	0.582275	-7.93457e-07
1383.95	0.582245	-6.37817e-06
1388.33	0.582214	0.000102631
1392.65	0.582275	-1.70898e-06
1396.97	0.582306	-5.06592e-06
1401.35	0.582245	6.63757e-05
1405.67	0.582397	-1.64795e-06
1409.99	0.582245	-5.61523e-06
1414.37	0.582214	4.74243e-05
1418.69	0.582214	-3.54004e-06
1423.01	0.582275	-6.2561e-06
1427.39	0.582245	3.66211e-05
1431.71	0.582214	-2.83813e-06
1436.03	0.582214	-5.92041e-06
1440.41	0.582245	2.90833e-05
1444.73	0.582245	-1.86157e-06
1449.05	0.582245	-7.93457e-06
1453.43	0.582214	2.27966e-05
1457.75	0.582214	-2.56348e-06
1462.07	0.582367	-4.94385e-06
1466.45	0.582245	1.93481e-05
1470.77	0.582245	-2.22778e-06
1475.09	0.582214	-6.92749e-06
1479.47	0.582214	1.55945e-05
1481.65	0.582245	-6.53076e-06

File: pulses_1000_to_2000.txt
Time (s)	WE(1).Potential (V)	WE(1).Current (A)
1506.23	-0.69754	-0.0170593
1510.59	0.582275	6.073e-06
1514.91	0.582306	-4.91333e-06
1519.25	-0.697784	-0.0129791
1523.61	0.582245	4.94385e-06
1527.93	0.582245	-4.79126e-06
1532.27	-0.697845	-0.010379
1536.63	0.582245	4.45557e-06
1540.95	0.582214	-5.00488e-06
1545.29	-0.698029	-0.00862732
1549.65	0.582275	4.02832e-06
1553.97	0.582245	-5.15747e-06
1558.33	0.000869751	0.0101013
1562.67	0.582306	3.96729e-06
1566.99	0.582245	-5.0354e-06
1571.35	0.00111389	0.00725525
1575.69	0.582153	4.42505e-06
1580.01	0.582275	-3.90625e-06
1584.37	0.00114441	0.00528503
1588.71	0.582275	1.89209e-06
1593.03	0.582245	-4.36401e-06
1597.39	0.00118408	0.00368561
1601.73	0.582245	7.01904e-07
1606.05	0.582306	-3.9978e-06
1610.43	0.582001	0.00982056
1614.75	0.582245	6.10352e-08
1619.07	0.582275	-4.63867e-06
1623.45	0.582306	0.000297302
1627.77	0.582214	9.15527e-07
1632.09	0.582275	-5.0354e-06
1636.47	0.582245	0.000133148
1640.79	0.582245	-3.05176e-08
1645.11	0.582245	-5.49316e-06
1649.49	0.582306	8.4259e-05
1653.81	0.582306	-1.2207e-07
1658.13	0.582245	-5.70679e-06
1662.51	0.582184	6.11877e-05
1666.83	0.582275	-1.06812e-06
1671.15	0.582214	-3.38745e-06
1675.53	0.582245	4.66309e-05
1679.85	0.582336	-7.01904e-07
1684.17	0.582245	-5.5542e-06
1688.55	0.582306	3.68652e-05
1692.87	0.582214	-7.62939e-07
1697.19	0.582275	-5.58472e-06
1701.57	0.582245	3.06396e-05
1705.89	0.582245	-2.22778e-06
1710.21	0.582306	-6.01196e-06
1714.59	0.582275	2.4353e-05
1718.91	0.582275	-1.19019e-06
1723.23	0.582275	-5.12695e-06
1727.61	0.582306	1.87073e-05
1731.93	0.582245	-1.31226e-06
1736.25	0.582245	-5.00488e-06
1740.63	0.582184	1.68762e-05
1744.95	0.582306	-3.35693e-07
1749.27	0.582245	-5.15747e-06
1753.65	0.582214	1.297e-05
1757.97	0.582275	-2.28882e-06
1762.29	0.582336	-5.06592e-06
1766.67	0.582275	1.29395e-05
1770.99	0.582153	-1.40381e-06
1775.33	-0.69754	-0.0179901
1779.69	0.582306	1.03149e-05
1784.01	0.582214	-3.75366e-06
1788.35	-0.697723	-0.0140625
1792.71	0.582214	1.03149e-05
1797.03	0.582214	-3.66211e-06
1801.37	-0.697815	-0.0114777
1805.73	0.582245	8.39233e-06
1810.05	0.582275	-2.86865e-06
1814.39	-0.697968	-0.00962524
1818.75	0.582275	7.26318e-06
1823.07	0.582275	-3.20435e-06
1827.43	0.000842285	0.00986328
1831.77	0.582245	5.40161e-06
1836.09	0.582275	-2.28882e-06
1840.45	0.00107727	0.00731476
1844.79	0.582245	5.24902e-06
1849.11	0.582275	-4.36401e-06
1853.47	0.00117493	0.00551697
1857.81	0.582184	4.02832e-06
1862.13	0.582275	-3.63159e-06
1866.49	0.00116882	0.00405273
1870.83	0.582184	3.35693e-06
1875.15	0.582275	-3.69263e-06
1879.53	0.581757	0.0125366
1883.85	0.582306	2.89917e-06
1888.17	0.582245	-4.76074e-06
1892.55	0.582245	0.000544128
1896.87	0.582214	2.59399e-06
1901.19	0.582275	-3.96729e-06
1905.57	0.582245	0.000176758
1909.89	0.582214	1.70898e-06
1914.21	0.582245	-5.31006e-06
1918.59	0.582214	0.000106598
1922.91	0.582245	1.5564e-06
1927.23	0.582245	-2.41089e-06
1931.61	0.582275	7.2998e-05
1935.93	0.582184	1.64795e-06
1940.25	0.582214	-4.45557e-06
1944.63	0.582214	5.69153e-05
1948.95	0.582306	-8.23975e-07
1953.27	0.582184	-4.79126e-06
1957.65	0.582306	4.56238e-05
1961.97	0.582245	-9.76562e-07
1966.29	0.582245	-5.85937e-06
1970.67	0.582214	3.72314e-05
1974.99	0.582275	-1.77002e-06
1979.31	0.582275	-4.24194e-06
1983.69	0.582306	2.93579e-05
1988.01	0.582184	-8.8501e-07
1992.33	0.582214	-3.78418e-06
1996.71	0.582245	2.45667e-05
2001.03	0.582306	-1.70898e-06
2005.35	0.582306	-5.09644e-06
2009.73	0.582275	2.22473e-05
2014.05	0.582184	3.35693e-07
2018.37	0.582245	-5.70679e-06
2022.75	0.582245	1.83716e-05
2027.07	0.582245	-2.10571e-06
2031.39	0.582214	-4.42505e-06
2035.77	0.582214	1.55945e-05
2040.09	0.582275	-1.92261e-06
2044.43	-0.697357	-0.0190643
2048.79	0.582214	1.3916e-05
2053.11	0.582245	-1.5564e-06
2057.45	-0.697571	-0.0150421
2061.81	0.582275	1.21155e-05
2066.13	0.582245	-1.95313e-06
2070.47	-0.697815	-0.0125061
2074.83	0.582214	9.67407e-06
2079.15	0.582275	-1.67847e-06
2083.49	-0.697845	-0.0106079
2087.85	0.582214	9.0332e-06
2092.17	0.582245	-3.38745e-06
2096.53	0.000784302	0.00949402
2100.87	0.582214	7.72095e-06
2105.19	0.582306	-2.16675e-06
2109.56	0.00109253	0.00724487
2113.9	0.582336	7.23267e-06
2118.22	0.582336	-2.0752e-06
2122.58	0.00113525	0.00560425
2126.92	0.582275	5.43213e-06
2131.24	0.582245	-2.80762e-06
2135.6	0.00116882	0.00425873
2139.94	0.582214	4.94385e-06
2144.26	0.582275	-3.66211e-06
2148.64	0.581604	0.0141113
2152.96	0.582275	3.87573e-06
2157.28	0.582306	-4.3335e-06
2161.66	0.582428	0.00189636
2165.98	0.582184	3.11279e-06
2170.3	0.582245	-2.16675e-06
2174.68	0.582245	0.000233765
2179	0.582245	3.66211e-06
2183.32	0.582245	-3.17383e-06
2187.7	0.582245	0.000129791
2192.02	0.582214	2.86865e-06
2196.34	0.582245	-3.60107e-06
2200.72	0.582245	8.78906e-05
2205.04	0.582245	1.80054e-06
2209.36	0.582245	-3.50952e-06
2213.74	0.582245	6.57959e-05
2218.06	0.582275	1.58691e-06
2222.38	0.582306	-2.89917e-06
2226.76	0.582214	5.07507e-05
2231.08	0.582275	1.43433e-06
2235.4	0.582245	-3.14331e-06
2239.78	0.582184	4.16565e-05
2244.1	0.582214	1.52588e-07
2248.42	0.582275	-3.63159e-06
2252.8	0.582214	3.4668e-05
2257.12	0.582214	-1.86157e-06
2261.44	0.582214	-4.97437e-06
2265.82	0.582336	3.01208e-05
2270.14	0.582306	6.10352e-07
2274.46	0.582275	-5.21851e-06
2278.84	0.582275	2.59705e-05
2283.16	0.582245	-1.12915e-06
2287.48	0.582214	-4.30298e-06
2291.86	0.582245	2.18506e-05
2296.18	0.582214	-2.74658e-07
2300.5	0.582275	-5.67627e-06
2304.88	0.582275	1.828e-05
2309.2	0.582306	-1.52588e-07
2313.54	-0.697327	-0.0200989
2317.9	0.582214	1.49231e-05
2322.22	0.582275	-7.01904e-07
2326.56	-0.697571	-0.0159973
2330.92	0.582214	1.34583e-05
2335.24	0.582336	-2.0752e-06
2339.58	-0.697784	-0.0134949
2343.94	0.582184	1.17798e-05
2348.26	0.582245	-2.68555e-06
2352.6	-0.697815	-0.0115814
2356.96	0.582275	9.33838e-06
2361.28	0.582245	-1.95313e-06
2365.64	0.000778198	0.00906982
2369.98	0.582214	8.42285e-06
2374.3	0.582245	-1.92261e-06
2378.66	0.00110168	0.00708466
2383	0.582214	8.23975e-06
2387.32	0.582214	-3.96729e-06
2391.68	0.00112305	0.00559967
2396.02	0.582214	6.92749e-06
2400.34	0.582245	-2.59399e-06
2404.7	0.00115051	0.0043634
2409.04	0.582275	7.41577e-06
2413.36	0.582306	-2.74658e-06
2417.74	0.581451	0.0152649
2422.06	0.582214	6.68335e-06
2426.38	0.582306	-2.59399e-06
2430.76	0.582001	0.00845337
2435.08	0.582184	5.27954e-06
2439.4	0.582214	-1.52588e-06
2443.78	0.582275	0.000366638
2448.1	0.582275	3.87573e-06
2452.42	0.582336	-2.38037e-06
2456.8	0.582275	0.000152618
2461.12	0.582214	2.89917e-06
2465.44	0.582184	-2.89917e-06
2469.82	0.582245	0.000102173
2474.14	0.582245	2.47192e-06
2478.46	0.582245	-3.50952e-06
2482.84	0.582214	7.5592e-05
2487.16	0.582275	1.64795e-06
2491.48	0.582275	-3.9978e-06
2495.86	0.582275	5.86548e-05
2500.18	0.582275	2.38037e-06
2504.5	0.582214	-5.06592e-06
2508.88	0.582214	4.80957e-05
2513.2	0.582245	3.05176e-07
2517.52	0.582275	-4.02832e-06
2521.9	0.582214	3.8208e-05
2526.22	0.582306	2.13623e-06
2530.54	0.582184	-3.32642e-06
2534.92	0.582214	3.3783e-05
2539.24	0.582245	1.37329e-06
2543.56	0.582184	-5.00488e-06
2547.94	0.582306	2.81067e-05
2552.26	0.582245	4.88281e-07
2556.58	0.582275	-4.42505e-06
2560.96	0.582214	2.30408e-05
2565.28	0.582214	3.05176e-07
2569.6	0.582214	-4.88281e-06
2573.98	0.582184	2.15149e-05
2578.3	0.582245	-9.46045e-07
2582.64	-0.697296	-0.020993
2587	0.582245	1.88293e-05
2591.32	0.582275	-1.58691e-06
2595.66	-0.697479	-0.0169159
2600.02	0.582306	1.58997e-05
2604.34	0.582336	-1.34277e-06
2608.68	-0.697723	-0.0144073
2613.04	0.582245	1.43433e-05
2617.36	0.582275	-3.96729e-07
2621.7	-0.697784	-0.0125
2626.06	0.582275	1.297e-05
2630.38	0.582306	-1.37329e-06
2634.74	0.00078125	0.00857239
2639.08	0.582275	9.94873e-06
2643.4	0.582336	-1.49536e-06
2647.76	0.00110779	0.00681549
2652.1	0.582245	9.97925e-06
2656.42	0.582306	-5.18799e-07
2660.78	0.00115662	0.00548157
2665.12	0.582245	7.32422e-06
2669.44	0.582245	-1.98364e-06
2673.8	0.00113831	0.00435699
2678.14	0.582275	6.40869e-06
2682.46	0.582275	-1.92261e-06
2686.84	0.581451	0.0161011
2691.16	0.582214	7.62939e-06
2695.48	0.582306	-2.50244e-06
2699.86	0.581787	0.0110535
2704.18	0.582306	5.00488e-06
2708.5	0.582214	-4.11987e-06
2712.88	0.582245	0.000996704
2717.2	0.582245	4.02832e-06
2721.52	0.582184	-2.7771e-06
2725.9	0.582245	0.000203156
2730.22	0.582245	4.3335e-06
2734.54	0.582245	-3.87573e-06
2738.92	0.582245	0.000116455
2743.24	0.582275	3.96729e-06
2747.56	0.582275	-3.23486e-06
2751.94	0.582245	8.30994e-05
2756.26	0.582336	2.38037e-06
2760.58	0.582306	-2.38037e-06
2764.96	0.582245	6.46057e-05
2769.28	0.582306	3.20435e-06
2773.6	0.582275	-2.41089e-06
2777.98	0.582245	5.2124e-05
2782.3	0.582275	2.01416e-06
2786.62	0.582245	-3.75366e-06
2791	0.582184	4.27551e-05
2795.32	0.582214	7.62939e-07
2799.64	0.582275	-1.31226e-06
2804.02	0.582306	3.68958e-05
2806.2	0.582275	-3.57056e-06