Folder: electrochromicfilms/Edgar/20230222 (1)

File: cv_data_d.txt
Potential applied (V)	Time (s)	WE(1).Current (A)	WE(1).Potential (V)
0.00259399	9.69107	2.43652e-06	0.00293579
0.0196838	10.0329	1.81091e-05	0.0199677
0.0367737	10.3747	3.3786e-05	0.0370605
0.0538635	10.7165	4.94537e-05	0.053894
0.0709534	11.0582	6.5155e-05	0.0709229
0.0880432	11.4	8.08411e-05	0.0879517
0.105133	11.7418	9.64966e-05	0.10498
0.122223	12.0836	0.000112152	0.12207
0.139313	12.4254	0.000127838	0.13916
0.156403	12.7672	0.000143494	0.156189
0.173492	13.109	0.00015918	0.173248
0.190582	13.4508	0.000174835	0.190247
0.207672	13.7926	0.000190521	0.207336
0.224762	14.1344	0.000206177	0.224335
0.241852	14.4762	0.000221863	0.241394
0.258942	14.818	0.000237549	0.258453
0.276031	15.1598	0.000253174	0.275543
0.293121	15.5016	0.00026886	0.29248
0.310211	15.8434	0.000284515	0.30954
0.327301	16.1852	0.000300232	0.326569
0.344391	16.527	0.000316223	0.344208
0.361481	16.8688	0.000331909	0.361328
0.378571	17.2106	0.000347595	0.378326
0.39566	17.5524	0.000363281	0.395416
0.41275	17.8942	0.000378937	0.412567
0.42984	18.236	0.000394623	0.429565
0.44693	18.5778	0.000410278	0.446625
0.46402	18.9196	0.000425964	0.463745
0.48111	19.2614	0.00044165	0.480774
0.498199	19.6031	0.000457336	0.497894
0.485992	19.9449	0.000446106	0.485718
0.468903	20.2867	0.00043042	0.468567
0.451813	20.6285	0.000414764	0.451569
0.434723	20.9703	0.000399078	0.434418
0.417633	21.3121	0.000383392	0.417358
0.400543	21.6539	0.000367737	0.40036
0.383453	21.9957	0.00035202	0.383209
0.366364	22.3375	0.000336365	0.36618
0.349274	22.6793	0.000320679	0.349091
0.332184	23.0211	0.000304993	0.332062
0.315094	23.3629	0.000289307	0.314941
0.298004	23.7047	0.00027359	0.297821
0.280914	24.0465	0.000257904	0.280792
0.263824	24.3883	0.000242218	0.263733
0.246735	24.7301	0.0002265625	0.246674
0.229645	25.0719	0.000210876	0.229523
0.212555	25.4137	0.00019519	0.212494
0.195465	25.7555	0.000179504	0.195435
0.178375	26.0973	0.000163818	0.178314
0.161285	26.4391	0.000148132	0.161224
0.144196	26.7809	0.000132446	0.144226
0.127106	27.1227	0.000116791	0.127167
0.110016	27.4645	0.000101105	0.110077
0.092926	27.8063	8.52966e-05	0.0928345
0.0758362	28.148	6.96106e-05	0.0757751
0.0587463	28.4898	5.39551e-05	0.0587158
0.0416565	28.8316	3.82507e-05	0.041922
0.0245667	29.1734	2.25922e-05	0.0248566
0.00747681	29.5152	6.91528e-06	0.00777893
-0.00961304	29.857	-8.7616e-06	-0.00928955
-0.0267029	30.1988	-2.44385e-05	-0.0263367
-0.0437927	30.5406	-4.01123e-05	-0.0434784
-0.0608826	30.8824	-5.57861e-05	-0.0606384
-0.0779724	31.2242	-7.14722e-05	-0.0777893
-0.0950623	31.566	-8.71582e-05	-0.0947571
-0.112152	31.9078	-0.000102844	-0.111847
-0.129242	32.2496	-0.0001185	-0.128937
-0.146332	32.5914	-0.000134186	-0.145905
-0.163422	32.9332	-0.000149841	-0.163025
-0.180511	33.275	-0.000165527	-0.180023
-0.197601	33.6168	-0.000181213	-0.197052
-0.214691	33.9586	-0.000196899	-0.214142
-0.231781	34.3004	-0.000212585	-0.231201
-0.248871	34.6422	-0.000228241	-0.248199
-0.265961	34.984	-0.000243958	-0.265289
-0.283051	35.3258	-0.000259613	-0.282288
-0.30014	35.6676	-0.000275299	-0.299377
-0.31723	36.0094	-0.000290985	-0.316437
-0.33432	36.3512	-0.000306793	-0.334045
-0.35141	36.6929	-0.000322479	-0.351196
-0.3685	37.0347	-0.000338196	-0.368225
-0.38559	37.3765	-0.000353882	-0.385345
-0.402679	37.7183	-0.000369598	-0.402405
-0.419769	38.0601	-0.000385254	-0.419464
-0.436859	38.4019	-0.00040094	-0.436523
-0.453949	38.7437	-0.000416626	-0.453674
-0.471039	39.0855	-0.000432343	-0.470703
-0.488129	39.4273	-0.000448029	-0.487823
-0.495453	39.7691	-0.000454773	-0.495087
-0.478363	40.1109	-0.000439056	-0.478058
-0.461273	40.4527	-0.00042337	-0.460999
-0.444183	40.7945	-0.000407684	-0.443909
-0.427094	41.1363	-0.000391998	-0.426758
-0.410004	41.4781	-0.000376312	-0.409729
-0.392914	41.8199	-0.000360626	-0.392639
-0.375824	42.1617	-0.00034494	-0.375549
-0.358734	42.5035	-0.000329224	-0.358459
-0.341644	42.8453	-0.000313568	-0.341461
-0.324554	43.1871	-0.000297852	-0.32431
-0.307465	43.5289	-0.000282135	-0.307159
-0.290375	43.8707	-0.000266449	-0.2901
-0.273285	44.2125	-0.000250763	-0.273071
-0.256195	44.5543	-0.000235077	-0.255981
-0.239105	44.8961	-0.000219391	-0.238892
-0.222015	45.2378	-0.000203705	-0.221771
-0.204926	45.5796	-0.000187988	-0.204651
-0.187836	45.9214	-0.000172302	-0.187592
-0.170746	46.2632	-0.000156616	-0.170563
-0.153656	46.605	-0.000140961	-0.153473
-0.136566	46.9468	-0.000125244	-0.136353
-0.119476	47.2886	-0.000109589	-0.119293
-0.102386	47.6304	-9.39026e-05	-0.102295
-0.0852966	47.9722	-7.8186e-05	-0.085022
-0.0682068	48.314	-6.25E-05	-0.0679932
-0.0511169	48.6558	-4.68353e-05	-0.0509033
-0.0340271	48.9976	-3.11646e-05	-0.0337097
-0.0169373	49.3394	-1.54846e-05	-0.016626
0.000152588	49.6812	1.86768e-07	0.000500488
0.0172424	50.023	1.58661e-05	0.0175171
0.0343323	50.3648	3.15399e-05	0.0345825
0.0514221	50.7066	4.72076e-05	0.0513916
0.068512	51.0484	6.28967e-05	0.0684509
0.0856018	51.3902	7.85828e-05	0.0855103
0.102692	51.732	9.42383e-05	0.102539
0.119781	52.0738	0.000109924	0.119659
0.136871	52.4156	0.00012558	0.136658
0.153961	52.7574	0.000141266	0.153717
0.171051	53.0992	0.000156921	0.170837
0.188141	53.441	0.000172607	0.187866
0.205231	53.7827	0.000188263	0.204865
0.222321	54.1245	0.000203949	0.221954
0.23941	54.4663	0.000219604	0.238953
0.2565	54.8081	0.000235291	0.255981
0.27359	55.1499	0.000250946	0.27301
0.29068	55.4917	0.000266602	0.290009
0.30777	55.8335	0.000282288	0.307098
0.32486	56.1753	0.000297974	0.324158
0.341949	56.5171	0.000313965	0.341766
0.359039	56.8589	0.000329651	0.358917
0.376129	57.2007	0.000345337	0.375977
0.393219	57.5425	0.000360992	0.393005
0.410309	57.8843	0.000376678	0.410126
0.427399	58.2261	0.000392365	0.427155
0.444489	58.5679	0.000408051	0.444275
0.461578	58.9097	0.000423706	0.461273
0.478668	59.2515	0.000439392	0.478271
0.495758	59.5933	0.000455078	0.495483
0.488434	59.9351	0.000448364	0.488098
0.471344	60.2769	0.000432678	0.471039
0.454254	60.6187	0.000416992	0.453949
0.437164	60.9605	0.000401306	0.43689
0.420074	61.3023	0.00038562	0.419861
0.402985	61.6441	0.000369965	0.40271
0.385895	61.9859	0.000354279	0.38562
0.368805	62.3276	0.000338593	0.368622
0.351715	62.6694	0.000322906	0.3515625
0.334625	63.0112	0.00030722	0.334503
0.317535	63.353	0.000291534	0.317352
0.300446	63.6948	0.000275848	0.300262
0.283356	64.0366	0.000260132	0.283203
0.266266	64.3784	0.000244476	0.266144
0.249176	64.7202	0.00022879	0.249146
0.232086	65.062	0.000213104	0.232025
0.214996	65.4038	0.000197418	0.214935
0.197906	65.7456	0.000181732	0.197815
0.180817	66.0874	0.000166046	0.180786
0.163727	66.4292	0.000150391	0.163696
0.146637	66.771	0.000134674	0.146667
0.129547	67.1128	0.000119019	0.129578
0.112457	67.4546	0.000103333	0.112518
0.0953674	67.7964	8.75244e-05	0.0952454
0.0782776	68.1382	7.18384e-05	0.0781555
0.0611877	68.48	5.61829e-05	0.0611267
0.0440979	68.8218	4.04816e-05	0.0443542
0.0270081	69.1636	2.4823e-05	0.0273071
0.00991821	69.5054	9.14307e-06	0.0102081
-0.00717163	69.8472	-6.52466e-06	-0.00683594
-0.0242615	70.189	-2.22046e-05	-0.0238892
-0.0413513	70.5308	-3.78784e-05	-0.0410126
-0.0584412	70.8725	-5.35583e-05	-0.0582275
-0.075531	71.2143	-6.92444e-05	-0.0753174
-0.0926208	71.5561	-8.49304e-05	-0.0923157
-0.109711	71.8979	-0.000100616	-0.109406
-0.126801	72.2397	-0.000116272	-0.126465
-0.14389	72.5815	-0.000131958	-0.143463
-0.16098	72.9233	-0.000147644	-0.160553
-0.17807	73.2651	-0.0001633	-0.177612
-0.19516	73.6069	-0.000178986	-0.194672
-0.21225	73.9487	-0.000194641	-0.211731
-0.22934	74.2905	-0.000210358	-0.22879
-0.246429	74.6323	-0.000226013	-0.245819
-0.263519	74.9741	-0.000241699	-0.262787
-0.280609	75.3159	-0.000257355	-0.279846
-0.297699	75.6577	-0.000273071	-0.296936
-0.314789	75.9995	-0.000288757	-0.313995
-0.331879	76.3413	-0.000304565	-0.331635
-0.348969	76.6831	-0.000320251	-0.348694
-0.366058	77.0249	-0.0003359375	-0.365814
-0.383148	77.3667	-0.000351624	-0.382874
-0.400238	77.7085	-0.00036734	-0.399994
-0.417328	78.0503	-0.000382996	-0.417023
-0.434418	78.3921	-0.000398712	-0.434082
-0.451508	78.7339	-0.000414398	-0.451202
-0.468597	79.0757	-0.000430084	-0.468292
-0.485687	79.4174	-0.00044577	-0.485352
-0.497894	79.7592	-0.000457001	-0.497559
-0.480804	80.101	-0.000441284	-0.480438
-0.463715	80.4428	-0.000425629	-0.463348
-0.446625	80.7846	-0.000409912	-0.44635
-0.429535	81.1264	-0.000394226	-0.42923
-0.412445	81.4682	-0.00037854	-0.412201
-0.395355	81.81	-0.000362885	-0.39502
-0.378265	82.1518	-0.000347168	-0.378021
-0.361176	82.4936	-0.000331482	-0.360931
-0.344086	82.8354	-0.000315796	-0.343811
-0.326996	83.1772	-0.00030011	-0.326721
-0.309906	83.519	-0.000284393	-0.309631
-0.292816	83.8608	-0.000268677	-0.292542
-0.275726	84.2026	-0.000252991	-0.275452
-0.258636	84.5444	-0.000237335	-0.258362
-0.241547	84.8862	-0.000221619	-0.241333
-0.224457	85.228	-0.000205933	-0.224213
-0.207367	85.5698	-0.000190216	-0.207153
-0.190277	85.9116	-0.000174561	-0.190063
-0.173187	86.2534	-0.000158875	-0.172943
-0.156097	86.5952	-0.000143188	-0.155914
-0.139008	86.937	-0.000127502	-0.138885
-0.121918	87.2788	-0.000111816	-0.121643
-0.104828	87.6206	-9.61304e-05	-0.104645
-0.087738	87.9623	-8.04443e-05	-0.0874329
-0.0706482	88.3041	-6.47583e-05	-0.0704041
-0.0535583	88.6459	-4.90814e-05	-0.0533447
-0.0364685	88.9877	-3.34137e-05	-0.0361359
-0.0193787	89.3295	-1.77307e-05	-0.0190674
-0.00228882	89.6713	-2.05841e-06	-0.00196838
0.000152588	89.7202	1.83411e-07	0.000482178

File: OCP_1_d(1).txt
Time (s)	WE(1).Potential (V)
1.59521	0.285767
1.69521	0.285767
1.79521	0.285767
1.89521	0.285767
1.99521	0.285767
2.09521	0.285767
2.19521	0.285767
2.29521	0.285767
2.39521	0.285767

File: OCP_1_d(2).txt
Time (s)	WE(1).Potential (V)
2.01375	0.000109863
2.11375	0.000109863
2.21375	0.000109863
2.31375	0.000109863
2.41375	0.000109863
2.51375	0.000109863
2.61375	0.000109863
2.71375	0.000109863
2.81375	0.000109863

File: OCP_1_d.txt
Time (s)	WE(1).Potential (V)
1.77675	0.00010376
1.87675	0.00010376
1.97675	0.00010376
2.07675	0.00010376
2.17675	0.00010376
2.27675	0.00010376
2.37675	0.00010376
2.47675	0.00010376
2.57675	0.00010376