Folder: electrochromicfilms/Edgar/20230201 (1) (part 2)

File: cv_data_c.txt
Potential applied (V)	Time (s)	WE(1).Current (A)	WE(1).Potential (V)
0.00259399	15.6222	2.39258e-06	0.00292969
0.0196838	15.964	1.80573e-05	0.0199615
0.0367737	16.3058	3.3725e-05	0.0370392
0.0538635	16.6476	4.93744e-05	0.053894
0.0709534	16.9894	6.5033e-05	0.0709534
0.0880432	17.3312	8.0719e-05	0.0879822
0.105133	17.6729	9.63745e-05	0.105011
0.122223	18.0147	0.00011203	0.122101
0.139313	18.3565	0.000127686	0.13916
0.156403	18.6983	0.000143341	0.156158
0.173492	19.0401	0.000159027	0.173218
0.190582	19.3819	0.000174683	0.190277
0.207672	19.7237	0.000190338	0.207306
0.224762	20.0655	0.000205994	0.224365
0.241852	20.4073	0.00022168	0.241394
0.258942	20.7491	0.000237335	0.258392
0.276031	21.0909	0.000252991	0.275452
0.293121	21.4327	0.000268646	0.292511
0.310211	21.7745	0.000284302	0.309509
0.327301	22.1163	0.000300018	0.326477
0.344391	22.4581	0.000315918	0.344147
0.361481	22.7999	0.000331573	0.361206
0.378571	23.1417	0.000347229	0.378326
0.39566	23.4835	0.000362915	0.395386
0.41275	23.8253	0.000378571	0.412476
0.42984	24.1671	0.000394226	0.429596
0.44693	24.5089	0.000409882	0.446564
0.46402	24.8507	0.000425568	0.463684
0.48111	25.1925	0.000441223	0.480743
0.498199	25.5343	0.000456909	0.497803
0.485992	25.8761	0.000445709	0.485565
0.468903	26.2178	0.000430023	0.468506
0.451813	26.5596	0.000414368	0.451477
0.434723	26.9014	0.000398712	0.434418
0.417633	27.2432	0.000383026	0.417328
0.400543	27.585	0.000367371	0.400208
0.383453	27.9268	0.000351685	0.383179
0.366364	28.2686	0.000336029	0.366211
0.349274	28.6104	0.000320374	0.34906
0.332184	28.9522	0.0003046875	0.33197
0.315094	29.294	0.000289032	0.31485
0.298004	29.6358	0.000273315	0.29776
0.280914	29.9776	0.00025766	0.280762
0.263824	30.3194	0.000242004	0.263641
0.246735	30.6612	0.000226318	0.246613
0.229645	31.003	0.000210663	0.229523
0.212555	31.3448	0.000194977	0.212433
0.195465	31.6866	0.000179321	0.195404
0.178375	32.0284	0.000163635	0.178314
0.161285	32.3702	0.00014798	0.161285
0.144196	32.712	0.000132294	0.144196
0.127106	33.0538	0.000116638	0.127167
0.110016	33.3956	0.000100983	0.110077
0.092926	33.7374	8.52051e-05	0.092865
0.0758362	34.0792	6.9519e-05	0.0757751
0.0587463	34.421	5.38635e-05	0.0586853
0.0416565	34.7627	3.81805e-05	0.0419189
0.0245667	35.1045	2.25311e-05	0.0248322
0.00747681	35.4463	6.8634e-06	0.00777893
-0.00961304	35.7881	-8.80127e-06	-0.00928955
-0.0267029	36.1299	-2.44629e-05	-0.0263275
-0.0437927	36.4717	-4.01306e-05	-0.0434357
-0.0608826	36.8135	-5.58167e-05	-0.0606384
-0.0779724	37.1553	-7.15027e-05	-0.0776672
-0.0950623	37.4971	-8.71582e-05	-0.0947266
-0.112152	37.8389	-0.000102844	-0.111816
-0.129242	38.1807	-0.0001185	-0.128876
-0.146332	38.5225	-0.000134155	-0.145935
-0.163422	38.8643	-0.000149841	-0.162994
-0.180511	39.2061	-0.000165497	-0.179993
-0.197601	39.5479	-0.000181152	-0.197021
-0.214691	39.8897	-0.000196838	-0.21405
-0.231781	40.2315	-0.000212494	-0.23111
-0.248871	40.5733	-0.00022818	-0.248169
-0.265961	40.9151	-0.000243835	-0.265198
-0.283051	41.2569	-0.000259491	-0.282257
-0.30014	41.5987	-0.000275177	-0.299286
-0.31723	41.9405	-0.000290863	-0.316315
-0.33432	42.2823	-0.000306549	-0.333923
-0.35141	42.6241	-0.000322235	-0.350983
-0.3685	42.9659	-0.000337891	-0.368134
-0.38559	43.3076	-0.000353577	-0.385193
-0.402679	43.6494	-0.000369263	-0.402283
-0.419769	43.9912	-0.000384949	-0.419312
-0.436859	44.333	-0.000400604	-0.436432
-0.453949	44.6748	-0.00041629	-0.453491
-0.471039	45.0166	-0.000431946	-0.47052
-0.488129	45.3584	-0.000447632	-0.48764
-0.495453	45.7002	-0.000454346	-0.494965
-0.478363	46.042	-0.00043869	-0.477844
-0.461273	46.3838	-0.000423004	-0.460876
-0.444183	46.7256	-0.000407318	-0.443726
-0.427094	47.0674	-0.000391663	-0.426636
-0.410004	47.4092	-0.000375977	-0.409576
-0.392914	47.751	-0.000360321	-0.392456
-0.375824	48.0928	-0.000344635	-0.375427
-0.358734	48.4346	-0.000328949	-0.358337
-0.341644	48.7764	-0.000313293	-0.341248
-0.324554	49.1182	-0.000297607	-0.324188
-0.307465	49.46	-0.000281921	-0.307068
-0.290375	49.8018	-0.000266235	-0.290009
-0.273285	50.1436	-0.000250549	-0.272949
-0.256195	50.4854	-0.000234894	-0.255859
-0.239105	50.8272	-0.000219208	-0.238739
-0.222015	51.169	-0.000203522	-0.22168
-0.204926	51.5108	-0.000187866	-0.204651
-0.187836	51.8525	-0.000172211	-0.187531
-0.170746	52.1943	-0.000156525	-0.170471
-0.153656	52.5361	-0.000140839	-0.153381
-0.136566	52.8779	-0.000125153	-0.136292
-0.119476	53.2197	-0.000109497	-0.119232
-0.102386	53.5615	-9.38416e-05	-0.102142
-0.0852966	53.9033	-7.82166e-05	-0.085022
-0.0682068	54.2451	-6.25305e-05	-0.0679016
-0.0511169	54.5869	-4.68414e-05	-0.0508118
-0.0340271	54.9287	-3.11859e-05	-0.0336884
-0.0169373	55.2705	-1.55151e-05	-0.0166199
0.000152588	55.6123	1.47095e-07	0.000469971
0.0172424	55.9541	1.58173e-05	0.0175049
0.0343323	56.2959	3.14819e-05	0.0345673
0.0514221	56.6377	4.71313e-05	0.0514221
0.068512	56.9795	6.28052e-05	0.0684814
0.0856018	57.3213	7.84607e-05	0.0855408
0.102692	57.6631	9.41467e-05	0.102631
0.119781	58.0049	0.000109802	0.119629
0.136871	58.3467	0.000125458	0.136627
0.153961	58.6885	0.000141113	0.153717
0.171051	59.0303	0.000156769	0.170868
0.188141	59.3721	0.000172455	0.187836
0.205231	59.7139	0.00018811	0.204895
0.222321	60.0557	0.000203766	0.221954
0.23941	60.3974	0.000219421	0.238983
0.2565	60.7392	0.000235107	0.256042
0.27359	61.081	0.000250732	0.272949
0.29068	61.4228	0.000266418	0.290039
0.30777	61.7646	0.000282074	0.307007
0.32486	62.1064	0.00029776	0.324127
0.341949	62.4482	0.00031366	0.341766
0.359039	62.79	0.000329346	0.358856
0.376129	63.1318	0.000345001	0.375824
0.393219	63.4736	0.000360687	0.392944
0.410309	63.8154	0.000376343	0.410034
0.427399	64.1572	0.000391998	0.427094
0.444489	64.499	0.000407654	0.444183
0.461578	64.8408	0.00042334	0.461243
0.478668	65.1826	0.000438995	0.478302
0.495758	65.5244	0.000454681	0.495422
0.488434	65.8662	0.000447968	0.488068
0.471344	66.208	0.000432281	0.470978
0.454254	66.5498	0.000416595	0.453888
0.437164	66.8916	0.00040094	0.436859
0.420074	67.2334	0.000385284	0.419769
0.402985	67.5752	0.000369629	0.402771
0.385895	67.917	0.000353943	0.385651
0.368805	68.2588	0.000338287	0.368622
0.351715	68.6006	0.000322601	0.351501
0.334625	68.9423	0.000306946	0.334442
0.317535	69.2841	0.00029126	0.317352
0.300446	69.6259	0.000275574	0.300262
0.283356	69.9677	0.000259888	0.283203
0.266266	70.3095	0.000244232	0.266113
0.249176	70.6513	0.000228577	0.249054
0.232086	70.9931	0.000212891	0.231964
0.214996	71.3349	0.000197235	0.214935
0.197906	71.6767	0.000181549	0.197815
0.180817	72.0185	0.000165863	0.180756
0.163727	72.3603	0.000150208	0.163696
0.146637	72.7021	0.000134552	0.146606
0.129547	73.0439	0.000118866	0.129578
0.112457	73.3857	0.00010321	0.112488
0.0953674	73.7275	8.74329e-05	0.0953064
0.0782776	74.0693	7.17468e-05	0.0782166
0.0611877	74.4111	5.60913e-05	0.0611572
0.0440979	74.7529	4.04175e-05	0.0443512
0.0270081	75.0947	2.47681e-05	0.027298
0.00991821	75.4365	9.10034e-06	0.0102173
-0.00717163	75.7783	-6.55823e-06	-0.00684509
-0.0242615	76.1201	-2.22229e-05	-0.0238983
-0.0413513	76.4619	-3.78937e-05	-0.0410004
-0.0584412	76.8037	-5.35889e-05	-0.058136
-0.075531	77.1455	-6.92444e-05	-0.0752258
-0.0926208	77.4872	-8.49304e-05	-0.0923462
-0.109711	77.829	-0.000100586	-0.109375
-0.126801	78.1708	-0.000116272	-0.126434
-0.14389	78.5126	-0.000131927	-0.143463
-0.16098	78.8544	-0.000147583	-0.160461
-0.17807	79.1962	-0.000163269	-0.177582
-0.19516	79.538	-0.000178925	-0.194611
-0.21225	79.8798	-0.00019458	-0.21167
-0.22934	80.2216	-0.000210266	-0.228607
-0.246429	80.5634	-0.000225952	-0.245758
-0.263519	80.9052	-0.000241608	-0.262756
-0.280609	81.247	-0.000257263	-0.279785
-0.297699	81.5888	-0.000272949	-0.296783
-0.314789	81.9306	-0.000288635	-0.313965
-0.331879	82.2724	-0.000304321	-0.331512
-0.348969	82.6142	-0.000320007	-0.348541
-0.366058	82.956	-0.000335663	-0.365692
-0.383148	83.2978	-0.000351349	-0.382721
-0.400238	83.6396	-0.000367035	-0.39978
-0.417328	83.9814	-0.00038269	-0.41684
-0.434418	84.3232	-0.000398376	-0.43399
-0.451508	84.665	-0.000414032	-0.450989
-0.468597	85.0068	-0.000429749	-0.46814
-0.485687	85.3486	-0.000445374	-0.485168
-0.497894	85.6904	-0.000456604	-0.497375
-0.480804	86.0321	-0.000440918	-0.480347
-0.463715	86.3739	-0.000425262	-0.463257
-0.446625	86.7157	-0.000409546	-0.446106
-0.429535	87.0575	-0.00039389	-0.429108
-0.412445	87.3993	-0.000378235	-0.412048
-0.395355	87.7411	-0.000362549	-0.394958
-0.378265	88.0829	-0.000346863	-0.377899
-0.361176	88.4247	-0.000331207	-0.360809
-0.344086	88.7665	-0.000315521	-0.343719
-0.326996	89.1083	-0.000299835	-0.32666
-0.309906	89.4501	-0.000284149	-0.309509
-0.292816	89.7919	-0.000268463	-0.292419
-0.275726	90.1337	-0.000252777	-0.275391
-0.258636	90.4755	-0.000237122	-0.258301
-0.241547	90.8173	-0.000221436	-0.241211
-0.224457	91.1591	-0.00020578	-0.224152
-0.207367	91.5009	-0.000190094	-0.207062
-0.190277	91.8427	-0.000174438	-0.190002
-0.173187	92.1845	-0.000158752	-0.172882
-0.156097	92.5263	-0.000143097	-0.155792
-0.139008	92.8681	-0.000127411	-0.138733
-0.121918	93.2099	-0.000111725	-0.121674
-0.104828	93.5517	-9.60693e-05	-0.104584
-0.087738	93.8935	-8.04443e-05	-0.0874329
-0.0706482	94.2353	-6.47583e-05	-0.0704041
-0.0535583	94.577	-4.90784e-05	-0.0532837
-0.0364685	94.9188	-3.34259e-05	-0.0361359
-0.0193787	95.2606	-1.77521e-05	-0.019046
-0.00228882	95.6024	-2.09106e-06	-0.00196228
0.000152588	95.6513	1.46484e-07	0.000497437

File: cv_data_d.txt
Potential applied (V)	Time (s)	WE(1).Current (A)	WE(1).Potential (V)
0.00259399	10.0341	2.38586e-06	0.00294189
0.0196838	10.3759	1.80573e-05	0.0199585
0.0367737	10.7177	3.37158e-05	0.0370331
0.0538635	11.0595	4.93713e-05	0.053894
0.0709534	11.4013	6.5033e-05	0.0708923
0.0880432	11.743	8.0719e-05	0.0879822
0.105133	12.0848	9.63745e-05	0.105042
0.122223	12.4266	0.00011203	0.122162
0.139313	12.7684	0.000127686	0.139099
0.156403	13.1102	0.000143341	0.15625
0.173492	13.452	0.000158997	0.173218
0.190582	13.7938	0.000174683	0.190277
0.207672	14.1356	0.000190338	0.207336
0.224762	14.4774	0.000205994	0.224335
0.241852	14.8192	0.00022168	0.241425
0.258942	15.161	0.000237335	0.258392
0.276031	15.5028	0.000252991	0.275452
0.293121	15.8446	0.000268646	0.292511
0.310211	16.1864	0.000284302	0.309509
0.327301	16.5282	0.000300018	0.326599
0.344391	16.87	0.000315887	0.344208
0.361481	17.2118	0.000331573	0.361298
0.378571	17.5536	0.000347229	0.378296
0.39566	17.8954	0.000362915	0.395355
0.41275	18.2372	0.000378571	0.412476
0.42984	18.579	0.000394226	0.429504
0.44693	18.9208	0.000409882	0.446625
0.46402	19.2626	0.000425568	0.463623
0.48111	19.6044	0.000441223	0.480743
0.498199	19.9462	0.000456909	0.497803
0.485992	20.2879	0.000445709	0.485596
0.468903	20.6297	0.000430023	0.468506
0.451813	20.9715	0.000414368	0.451477
0.434723	21.3133	0.000398682	0.434448
0.417633	21.6551	0.000383026	0.417328
0.400543	21.9969	0.000367371	0.400269
0.383453	22.3387	0.000351685	0.383179
0.366364	22.6805	0.000336029	0.366058
0.349274	23.0223	0.000320343	0.348999
0.332184	23.3641	0.0003046875	0.332001
0.315094	23.7059	0.000289001	0.31485
0.298004	24.0477	0.000273315	0.297821
0.280914	24.3895	0.00025766	0.280701
0.263824	24.7313	0.000242004	0.263702
0.246735	25.0731	0.000226318	0.246643
0.229645	25.4149	0.000210663	0.229584
0.212555	25.7567	0.000194977	0.212463
0.195465	26.0985	0.000179291	0.195374
0.178375	26.4403	0.000163635	0.178314
0.161285	26.7821	0.00014798	0.161285
0.144196	27.1239	0.000132324	0.144226
0.127106	27.4657	0.000116638	0.127136
0.110016	27.8075	0.000100983	0.110046
0.092926	28.1493	8.52051e-05	0.0928345
0.0758362	28.4911	6.9519e-05	0.0757751
0.0587463	28.8328	5.38635e-05	0.0587158
0.0416565	29.1746	3.81805e-05	0.0419098
0.0245667	29.5164	2.25281e-05	0.0248505
0.00747681	29.8582	6.86035e-06	0.00778503
-0.00961304	30.2	-8.80127e-06	-0.00928955
-0.0267029	30.5418	-2.44659e-05	-0.0263275
-0.0437927	30.8836	-4.01276e-05	-0.0434296
-0.0608826	31.2254	-5.58167e-05	-0.0605774
-0.0779724	31.5672	-7.15027e-05	-0.0776367
-0.0950623	31.909	-8.71582e-05	-0.0947571
-0.112152	32.2508	-0.000102844	-0.111755
-0.129242	32.5926	-0.0001185	-0.128845
-0.146332	32.9344	-0.000134155	-0.145844
-0.163422	33.2762	-0.000149811	-0.162933
-0.180511	33.618	-0.000165497	-0.179993
-0.197601	33.9598	-0.000181152	-0.197021
-0.214691	34.3016	-0.000196838	-0.214142
-0.231781	34.6434	-0.000212494	-0.23114
-0.248871	34.9852	-0.00022818	-0.248138
-0.265961	35.327	-0.000243835	-0.265167
-0.283051	35.6688	-0.000259491	-0.282288
-0.30014	36.0106	-0.000275177	-0.299286
-0.31723	36.3524	-0.000290863	-0.316254
-0.33432	36.6942	-0.000306549	-0.334015
-0.35141	37.036	-0.000322235	-0.351013
-0.3685	37.3777	-0.000337921	-0.368073
-0.38559	37.7195	-0.000353577	-0.385132
-0.402679	38.0613	-0.000369263	-0.402222
-0.419769	38.4031	-0.000384918	-0.419312
-0.436859	38.7449	-0.000400604	-0.436432
-0.453949	39.0867	-0.00041629	-0.453522
-0.471039	39.4285	-0.000431976	-0.470459
-0.488129	39.7703	-0.000447632	-0.487671
-0.495453	40.1121	-0.000454346	-0.494904
-0.478363	40.4539	-0.00043869	-0.477905
-0.461273	40.7957	-0.000423004	-0.460785
-0.444183	41.1375	-0.000407318	-0.443787
-0.427094	41.4793	-0.000391663	-0.426666
-0.410004	41.8211	-0.000375977	-0.409576
-0.392914	42.1629	-0.000360321	-0.392487
-0.375824	42.5047	-0.000344635	-0.375427
-0.358734	42.8465	-0.000328949	-0.358307
-0.341644	43.1883	-0.000313293	-0.341278
-0.324554	43.5301	-0.000297607	-0.324219
-0.307465	43.8719	-0.000281891	-0.307098
-0.290375	44.2137	-0.000266235	-0.289978
-0.273285	44.5555	-0.00025058	-0.272888
-0.256195	44.8973	-0.000234894	-0.255859
-0.239105	45.2391	-0.000219208	-0.2388
-0.222015	45.5809	-0.000203552	-0.221649
-0.204926	45.9226	-0.000187866	-0.20459
-0.187836	46.2644	-0.00017218	-0.1875
-0.170746	46.6062	-0.000156494	-0.170441
-0.153656	46.948	-0.000140839	-0.153381
-0.136566	47.2898	-0.000125153	-0.136292
-0.119476	47.6316	-0.000109497	-0.119202
-0.102386	47.9734	-9.3811e-05	-0.102173
-0.0852966	48.3152	-7.82166e-05	-0.0849915
-0.0682068	48.657	-6.25305e-05	-0.0679321
-0.0511169	48.9988	-4.68414e-05	-0.0508423
-0.0340271	49.3406	-3.11829e-05	-0.0336914
-0.0169373	49.6824	-1.55182e-05	-0.0166046
0.000152588	50.0242	1.474e-07	0.000485229
0.0172424	50.366	1.58142e-05	0.0175262
0.0343323	50.7078	3.14789e-05	0.0345734
0.0514221	51.0496	4.71313e-05	0.0514526
0.068512	51.3914	6.28052e-05	0.0684509
0.0856018	51.7332	7.84607e-05	0.0855408
0.102692	52.075	9.41467e-05	0.10257
0.119781	52.4168	0.000109802	0.119659
0.136871	52.7586	0.000125458	0.136719
0.153961	53.1004	0.000141113	0.153717
0.171051	53.4422	0.000156769	0.170837
0.188141	53.784	0.000172455	0.187897
0.205231	54.1258	0.00018808	0.204865
0.222321	54.4675	0.000203766	0.221985
0.23941	54.8093	0.000219421	0.239014
0.2565	55.1511	0.000235107	0.255951
0.27359	55.4929	0.000250732	0.27301
0.29068	55.8347	0.000266418	0.2901
0.30777	56.1765	0.000282074	0.307098
0.32486	56.5183	0.00029776	0.324097
0.341949	56.8601	0.00031366	0.341766
0.359039	57.2019	0.000329346	0.358856
0.376129	57.5437	0.000345001	0.375854
0.393219	57.8855	0.000360687	0.392944
0.410309	58.2273	0.000376343	0.410004
0.427399	58.5691	0.000391998	0.427094
0.444489	58.9109	0.000407654	0.444153
0.461578	59.2527	0.00042334	0.461212
0.478668	59.5945	0.000438995	0.478333
0.495758	59.9363	0.000454681	0.495361
0.488434	60.2781	0.000447937	0.488037
0.471344	60.6199	0.000432281	0.470978
0.454254	60.9617	0.000416595	0.453949
0.437164	61.3035	0.00040094	0.436859
0.420074	61.6453	0.000385284	0.419769
0.402985	61.9871	0.000369629	0.40274
0.385895	62.3289	0.000353943	0.38562
0.368805	62.6707	0.000338257	0.36853
0.351715	63.0124	0.000322601	0.351471
0.334625	63.3542	0.000306946	0.334442
0.317535	63.696	0.00029126	0.317352
0.300446	64.0378	0.000275574	0.300262
0.283356	64.3796	0.000259888	0.283203
0.266266	64.7214	0.000244232	0.266144
0.249176	65.0632	0.000228577	0.249115
0.232086	65.405	0.000212891	0.231964
0.214996	65.7468	0.000197205	0.214935
0.197906	66.0886	0.000181549	0.197845
0.180817	66.4304	0.000165894	0.180756
0.163727	66.7722	0.000150208	0.163727
0.146637	67.114	0.000134552	0.146698
0.129547	67.4558	0.000118896	0.129578
0.112457	67.7976	0.000103241	0.112457
0.0953674	68.1394	8.74329e-05	0.0953064
0.0782776	68.4812	7.17468e-05	0.0782166
0.0611877	68.823	5.60913e-05	0.0611572
0.0440979	69.1648	4.04175e-05	0.0443573
0.0270081	69.5066	2.47681e-05	0.0272949
0.00991821	69.8484	9.10034e-06	0.0102234
-0.00717163	70.1902	-6.55823e-06	-0.00683899
-0.0242615	70.532	-2.2226e-05	-0.0238861
-0.0413513	70.8738	-3.78906e-05	-0.0409851
-0.0584412	71.2156	-5.35889e-05	-0.058075
-0.075531	71.5573	-6.92444e-05	-0.0751648
-0.0926208	71.8991	-8.49304e-05	-0.0922852
-0.109711	72.2409	-0.000100586	-0.109344
-0.126801	72.5827	-0.000116272	-0.126404
-0.14389	72.9245	-0.000131927	-0.143402
-0.16098	73.2663	-0.000147583	-0.160522
-0.17807	73.6081	-0.000163269	-0.177551
-0.19516	73.9499	-0.000178925	-0.194641
-0.21225	74.2917	-0.00019458	-0.211639
-0.22934	74.6335	-0.000210266	-0.228638
-0.246429	74.9753	-0.000225952	-0.245728
-0.263519	75.3171	-0.000241608	-0.262787
-0.280609	75.6589	-0.000257263	-0.279755
-0.297699	76.0007	-0.000272949	-0.296814
-0.314789	76.3425	-0.000288635	-0.313904
-0.331879	76.6843	-0.000304291	-0.331512
-0.348969	77.0261	-0.000319977	-0.348572
-0.366058	77.3679	-0.000335663	-0.365662
-0.383148	77.7097	-0.000351349	-0.38269
-0.400238	78.0515	-0.000367035	-0.399811
-0.417328	78.3933	-0.00038269	-0.416809
-0.434418	78.7351	-0.000398346	-0.433899
-0.451508	79.0769	-0.000414032	-0.45105
-0.468597	79.4187	-0.000429718	-0.46817
-0.485687	79.7605	-0.000445404	-0.485168
-0.497894	80.1022	-0.000456604	-0.497375
-0.480804	80.444	-0.000440918	-0.480347
-0.463715	80.7858	-0.000425232	-0.463257
-0.446625	81.1276	-0.000409546	-0.446167
-0.429535	81.4694	-0.00039389	-0.429047
-0.412445	81.8112	-0.000378204	-0.411987
-0.395355	82.153	-0.000362549	-0.394928
-0.378265	82.4948	-0.000346863	-0.377808
-0.361176	82.8366	-0.000331207	-0.360718
-0.344086	83.1784	-0.000315521	-0.343719
-0.326996	83.5202	-0.000299866	-0.326599
-0.309906	83.862	-0.000284149	-0.309509
-0.292816	84.2038	-0.000268463	-0.292419
-0.275726	84.5456	-0.000252777	-0.27536
-0.258636	84.8874	-0.000237122	-0.258331
-0.241547	85.2292	-0.000221436	-0.241211
-0.224457	85.571	-0.00020578	-0.224152
-0.207367	85.9128	-0.000190094	-0.207062
-0.190277	86.2546	-0.000174438	-0.190002
-0.173187	86.5964	-0.000158752	-0.172913
-0.156097	86.9382	-0.000143066	-0.155823
-0.139008	87.28	-0.00012738	-0.138702
-0.121918	87.6218	-0.000111725	-0.121643
-0.104828	87.9636	-9.60693e-05	-0.104614
-0.087738	88.3054	-8.04443e-05	-0.0873718
-0.0706482	88.6471	-6.47888e-05	-0.0703735
-0.0535583	88.9889	-4.90784e-05	-0.0532837
-0.0364685	89.3307	-3.34229e-05	-0.0361206
-0.0193787	89.6725	-1.77551e-05	-0.0190399
-0.00228882	90.0143	-2.08832e-06	-0.00195923
0.000152588	90.0632	1.50146e-07	0.000476074

File: impedance(1).txt
Time (s)	Frequency (Hz)	Z' (Ω)	-Z'' (Ω)	Z (Ω)	-Phase (°)
107.668	50000	100.143	3.84256	100.217	2.1974
110.204	39520	100.135	4.63248	100.242	2.64874
113.585	31237	100.186	5.66039	100.346	3.2337
116.601	24690	100.216	7.01	100.461	4.00125
119.942	19515	100.237	8.72761	100.616	4.97617
123.628	15425	100.344	10.9435	100.939	6.22405
127.729	12192	100.416	13.751	101.353	7.79762
132.325	9636.3	100.574	17.3117	102.053	9.76657
137.726	7616.5	100.696	21.809	103.03	12.2205
143.738	6020.1	101.046	27.5222	104.727	15.2362
149.529	4758.3	101.539	34.7359	107.316	18.8855
155.345	3761	102.347	43.8666	111.352	23.2003
161.241	2972.7	103.529	55.3485	117.395	28.1299
167.092	2349.6	105.404	69.8087	126.425	33.5163
172.923	1857.2	108.414	87.9912	139.629	39.0634
178.874	1467.9	113.134	110.717	158.296	44.3814
184.71	1160.2	120.506	138.866	183.862	49.049
190.581	917.05	132.155	173.527	218.121	52.7077
196.403	724.84	150.035	215.28	262.404	55.1261
202.184	572.92	177.337	264.327	318.303	56.1422
213.466	452.83	217.915	319.517	386.753	55.7055
219.552	357.92	275.668	377.361	467.326	53.8513
225.658	282.9	353.679	431.658	558.048	50.6706
231.319	223.61	451.471	473.479	654.223	46.363
236.92	176.74	563.508	494.156	749.488	41.2484
242.611	139.7	679.001	488.362	836.384	35.725
248.433	110.42	785.864	457.52	909.344	30.2074
254.039	87.273	875.522	409.058	966.368	25.0428
259.11	68.981	944.442	352.243	1007.99	20.4537
265.011	54.523	994.341	294.944	1037.16	16.5215
269.662	43.095	1029.08	242.181	1057.2	13.2428
275.018	34.062	1050.99	196.015	1069.11	10.5646
281.184	26.923	1066.68	157.383	1078.23	8.39313
286.275	21.28	1075.83	125.752	1083.15	6.66698
292.036	16.82	1081.63	99.9839	1086.24	5.28129
298.542	13.294	1085.07	79.3114	1087.96	4.18052
303.879	10.508	1087.85	62.8779	1089.67	3.30803
309.96	8.3055	1089.63	49.7989	1090.77	2.61674
316.946	6.5647	1090.25	39.39	1090.97	2.06915
322.457	5.1887	1091.17	31.17	1091.62	1.63624
328.563	4.1012	1091.6	24.614	1091.87	1.29172
335.454	3.2416	1091.55	19.4663	1091.73	1.02168
341	2.5622	1091.77	15.3401	1091.87	0.804993
347.181	2.0251	1092.26	12.1706	1092.32	0.638398
354.152	1.6007	1091.96	9.62931	1092	0.505242
359.734	1.2652	1091.74	7.61965	1091.77	0.39988
366.205	1	1092.32	6.20884	1092.34	0.325669

File: impedance(2).txt
Time (s)	Frequency (Hz)	Z' (Ω)	-Z'' (Ω)	Z (Ω)	-Phase (°)
107.188	50000	100.149	3.85085	100.223	2.202
109.629	39520	100.157	4.62362	100.263	2.64312
112.305	31237	100.188	5.66618	100.348	3.23695
115.241	24690	100.231	7.00573	100.476	3.99823
118.417	19515	100.237	8.73205	100.617	4.97868
121.978	15425	100.31	10.9389	100.905	6.22354
126.019	12192	100.432	13.7483	101.369	7.79485
130.555	9636.3	100.553	17.3132	102.033	9.76938
135.741	7616.5	100.726	21.8111	103.06	12.2182
141.548	6020.1	101.062	27.5278	104.744	15.2368
147.234	4758.3	101.564	34.7443	107.343	18.8854
152.92	3761	102.344	43.8604	111.347	23.1979
158.671	2972.7	103.542	55.3562	117.41	28.1302
164.417	2349.6	105.419	69.8149	126.441	33.515
170.213	1857.2	108.38	87.966	139.586	39.0644
175.999	1467.9	113.141	110.717	158.301	44.3796
181.68	1160.2	120.487	138.84	183.831	49.0483
187.351	917.05	132.144	173.549	218.131	52.7136
192.957	724.84	150.059	215.289	262.425	55.123
198.599	572.92	177.32	264.326	318.293	56.1448
209.431	452.83	217.924	319.559	386.793	55.7078
215.037	357.92	275.699	377.418	467.391	53.8524
220.823	282.9	353.736	431.768	558.169	50.6732
226.219	223.61	451.375	473.434	654.125	46.3664
231.51	176.74	563.562	494.199	749.557	41.2482
236.951	139.7	679.021	488.409	836.428	35.7268
242.547	110.42	785.684	457.392	909.124	30.2061
247.913	87.273	875.842	409.304	966.762	25.0479
252.75	68.981	944.48	352.27	1008.04	20.4544
258.401	54.523	994.213	294.949	1037.04	16.5238
262.722	43.095	1028.77	242.184	1056.89	13.2469
267.698	34.062	1051.8	196.152	1069.93	10.5638
273.644	26.923	1066.68	157.425	1078.24	8.39532
278.39	21.28	1075.89	125.726	1083.21	6.66526
283.876	16.82	1081.95	100.047	1086.57	5.28305
290.212	13.294	1085.76	79.4038	1088.66	4.18271
295.483	10.508	1087.53	62.803	1089.34	3.30506
301.359	8.3055	1089.58	49.8081	1090.72	2.61734
311.947	6.5647	1090.51	39.3609	1091.22	2.06714
317.148	5.1887	1090.94	31.2194	1091.39	1.63918
323.134	4.1012	1091.46	24.6419	1091.74	1.29334
329.94	3.2416	1091.38	19.483	1091.56	1.02271
335.316	2.5622	1091.92	15.4181	1092.03	0.808968
341.337	2.0251	1092.05	12.1756	1092.12	0.63878
348.183	1.6007	1091.82	9.60917	1091.86	0.504251
353.554	1.2652	1091.91	7.6251	1091.94	0.400104
359.831	1	1092.11	6.12954	1092.13	0.321572

File: impedance.txt
Time (s)	Frequency (Hz)	Z' (Ω)	-Z'' (Ω)	Z (Ω)	-Phase (°)
114.667	50000	100.312	3.82754	100.385	2.18513
117.413	39520	100.282	4.5937	100.387	2.62276
120.324	31237	100.292	5.61617	100.449	3.20513
123.6	24690	100.281	6.93837	100.52	3.95796
127.121	19515	100.348	8.65101	100.721	4.92727
131.002	15425	100.354	10.8327	100.937	6.16089
135.223	12192	100.404	13.6103	101.322	7.71974
140.01	9636.3	100.428	17.1365	101.88	9.68337
145.556	7616.5	100.451	21.6102	102.749	12.1411
151.647	6020.1	100.482	27.2714	104.118	15.1846
157.613	4758.3	100.539	34.4477	106.277	18.913
163.669	3761	100.528	43.4923	109.533	23.3952
169.685	2972.7	100.592	54.9708	114.633	28.6553
175.771	2349.6	100.617	69.4686	122.269	34.6222
181.797	1857.2	100.703	87.8395	133.63	41.0969
187.878	1467.9	100.788	111.058	149.974	47.7752
193.85	1160.2	100.841	140.392	172.855	54.3109
199.896	917.05	100.941	177.51	204.203	60.3752
206.077	724.84	101.049	224.461	246.157	65.7634
212.223	572.92	101.239	283.972	301.478	70.3783
223.575	452.83	101.493	359.224	373.286	74.2231
229.566	357.92	101.711	454.192	465.441	77.3776
240.663	282.9	101.981	574.447	583.429	79.9333
246.31	223.61	102.366	726.507	733.683	81.9797
251.891	176.74	102.857	918.398	924.14	83.6097
257.662	139.7	103.686	1161.89	1166.51	84.9005
263.348	110.42	104.81	1469.66	1473.39	85.9208
269.309	87.273	106.516	1859.18	1862.23	86.721
274.675	68.981	108.943	2351.36	2353.89	87.3473
284.492	54.523	112.826	2978.11	2980.25	87.8304
289.168	43.095	118.768	3767.6	3769.47	88.1944
294.619	34.062	128.989	4765.02	4766.77	88.4494
300.961	26.923	144.515	6029.74	6031.47	88.627
305.942	21.28	167.439	7621.57	7623.41	88.7415
311.643	16.82	203.651	9633.2	9635.36	88.7889
318.294	13.294	263.555	12192.9	12195.7	88.7617
323.83	10.508	358.882	15429	15433.2	88.6675
329.911	8.3055	499.261	19489.6	19496	88.5326
336.887	6.5647	741.405	24672.5	24683.6	88.2788
351.295	5.1887	1108.56	31225.7	31245.3	87.9668
357.267	4.1012	1694.87	39481.1	39517.5	87.5419
364.333	3.2416	2646.75	49909.7	49979.8	86.9644
369.974	2.5622	4142.2	63001.2	63137.2	86.2383
376.155	2.0251	6534.55	79541.5	79809.5	85.3035
383.206	1.6007	10356.5	100237	100770	84.1011
388.852	1.2652	16311.5	125996	127048	82.6235
400.804	1	25716.9	157655	159739	80.7354