Folder: electrochromicfilms/Edgar/20230201 (1) (part 3)

File: impedance_d.txt
Time (s)	Frequency (Hz)	Z' (Ω)	-Z'' (Ω)	Z (Ω)	-Phase (°)
101.465	50000	100.138	3.84684	100.212	2.19995
103.966	39520	100.19	4.62832	100.297	2.64491
106.672	31237	100.169	5.66221	100.329	3.23527
109.673	24690	100.199	7.00425	100.444	3.99865
112.899	19515	100.273	8.73792	100.653	4.98024
116.485	15425	100.348	10.9421	100.943	6.22301
120.461	12192	100.409	13.7462	101.346	7.79543
125.042	9636.3	100.513	17.3014	101.991	9.76667
130.333	7616.5	100.778	21.8222	103.114	12.218
136.219	6020.1	101.064	27.5254	104.746	15.2353
142.031	4758.3	101.539	34.7308	107.314	18.883
147.812	3761	102.29	43.8422	111.29	23.2003
153.623	2972.7	103.494	55.3296	117.356	28.1297
159.459	2349.6	105.42	69.8219	126.446	33.5173
165.335	1857.2	108.38	87.9604	139.582	39.0626
171.131	1467.9	113.074	110.662	158.214	44.3823
176.832	1160.2	120.498	138.846	183.842	49.0466
182.648	917.05	132.092	173.484	218.048	52.7141
188.334	724.84	150.016	215.237	262.358	55.1242
194.121	572.92	177.284	264.241	318.203	56.1416
205.288	452.83	217.943	319.562	386.806	55.7058
211.089	357.92	275.607	377.286	467.23	53.852
216.845	282.9	353.724	431.713	558.119	50.6706
222.326	223.61	451.558	473.612	654.38	46.3656
227.622	176.74	563.627	494.252	749.641	41.248
233.198	139.7	678.895	488.325	836.278	35.7272
238.829	110.42	785.859	457.581	909.371	30.2109
244.235	87.273	875.94	409.312	966.854	25.0459
249.107	68.981	944.471	352.273	1008.03	20.4547
254.788	54.523	994.357	295.027	1037.2	16.5257
259.119	43.095	1028.69	242.154	1056.81	13.2463
264.235	34.062	1052.18	196.216	1070.32	10.5635
270.211	26.923	1066.45	157.375	1078	8.39452
274.972	21.28	1075.85	125.688	1083.16	6.66348
280.403	16.82	1081.27	99.94	1085.88	5.28076
286.789	13.294	1085.64	79.3562	1088.54	4.18065
292.015	10.508	1088.24	62.945	1090.05	3.31037
297.966	8.3055	1089.57	49.8254	1090.71	2.61827
304.628	6.5647	1090.16	39.4192	1090.87	2.07086
309.829	5.1887	1091.19	31.1284	1091.64	1.63403
315.685	4.1012	1091.31	24.6675	1091.58	1.29487
322.481	3.2416	1091.84	19.545	1092.02	1.02554
327.737	2.5622	1092.1	15.3842	1092.21	0.807059
333.638	2.0251	1091.51	12.1903	1091.58	0.639868
340.374	1.6007	1091.65	9.62445	1091.69	0.505132
345.67	1.2652	1091.75	7.5474	1091.77	0.396088
351.961	1	1091.85	6.17875	1091.87	0.324231

File: OCP_1_b.txt
Time (s)	WE(1).Potential (V)
8.19087	0.00015564
8.29087	0.00015564
8.39087	0.00015564
8.49087	0.00015564
8.59087	0.00015564
8.69087	0.00015564
8.79087	0.00015564
8.89087	0.00015564
8.99087	0.00015564

File: OCP_1_c.txt
Time (s)	WE(1).Potential (V)
7.91934	0.00015564
8.01934	0.00015564
8.11934	0.00015564
8.21934	0.00015564
8.31934	0.00015564
8.41934	0.00015564
8.51934	0.00015564
8.61934	0.00015564
8.71934	0.00015564

File: OCP_1_d.txt
Time (s)	WE(1).Potential (V)
1.79822	0.00015564
1.89822	0.000158691
1.99822	0.00015564
2.09822	0.00015564
2.19822	0.00015564
2.29822	0.00015564
2.39822	0.00015564
2.49822	0.00015564
2.59822	0.00015564
2.69822	0.00015564
2.79822	0.00015564
2.89822	0.00015564
2.99822	0.00015564