Folder: electrochromicfilms/Edgar/20230201 (1)

Note: Edgar/20230201 (1)/OCP_1.txt
Time (s)	OCP value (V)
12.02493296964	0.000155639648437497
12.1249329693875	
12.224932969135	
12.3249329688825	
12.4249329686301	
12.5249329683776	
12.6249329681251	
12.7249329678726	
12.8249329676202

File: cv_data.txt
Potential applied (V)	Time (s)	WE(1).Current (A)	WE(1).Potential (V)
0.00259399	19.8592	-2.38037e-09	0.00287781
0.0196838	20.201	2.36816e-08	0.0199707
0.0367737	20.5428	3.30505e-08	0.0370087
0.0538635	20.8846	5.79224e-08	0.0538025
0.0709534	21.2264	6.97937e-08	0.0708313
0.0880432	21.5682	9.16748e-08	0.0879517
0.105133	21.91	1.03912e-07	0.105072
0.122223	22.2518	1.24939e-07	0.12207
0.139313	22.5936	1.39648e-07	0.13913
0.156403	22.9354	1.57379e-07	0.156128
0.173492	23.2772	1.73401e-07	0.173187
0.190582	23.619	1.89819e-07	0.190247
0.207672	23.9608	2.09595e-07	0.207275
0.224762	24.3026	2.21313e-07	0.224304
0.241852	24.6444	2.46552e-07	0.241333
0.258942	24.9862	2.54028e-07	0.258392
0.276031	25.328	2.79724e-07	0.275391
0.293121	25.6698	2.90009e-07	0.292419
0.310211	26.0116	3.07617e-07	0.309967
0.327301	26.3534	3.23486e-07	0.327087
0.344391	26.6952	3.41492e-07	0.344147
0.361481	27.037	3.58582e-07	0.361176
0.378571	27.3788	3.77197e-07	0.378296
0.39566	27.7206	3.93372e-07	0.395386
0.41275	28.0624	4.12292e-07	0.412445
0.42984	28.4041	4.27246e-07	0.429504
0.44693	28.7459	4.47388e-07	0.446533
0.46402	29.0877	4.62036e-07	0.463623
0.48111	29.4295	4.82483e-07	0.480804
0.498199	29.7713	4.97131e-07	0.497894
0.485992	30.1131	4.84314e-07	0.485596
0.468903	30.4549	4.69971e-07	0.468536
0.451813	30.7967	4.45251e-07	0.451385
0.434723	31.1385	4.37012e-07	0.434448
0.417633	31.4803	4.10156e-07	0.417358
0.400543	31.8221	4.02527e-07	0.400269
0.383453	32.1639	3.77197e-07	0.383118
0.366364	32.5057	3.67126e-07	0.36615
0.349274	32.8475	3.43018e-07	0.34906
0.332184	33.1893	3.302e-07	0.332001
0.315094	33.5311	3.10669e-07	0.31488
0.298004	33.8729	2.94495e-07	0.297821
0.280914	34.2147	2.76794e-07	0.280792
0.263824	34.5565	2.59705e-07	0.263702
0.246735	34.8983	2.45361e-07	0.246613
0.229645	35.2401	2.23694e-07	0.229492
0.212555	35.5819	2.15302e-07	0.212524
0.195465	35.9237	1.88538e-07	0.195343
0.178375	36.2655	1.8338e-07	0.178314
0.161285	36.6073	1.57806e-07	0.161285
0.144196	36.949	1.45386e-07	0.144226
0.127106	37.2908	1.25244e-07	0.127197
0.110016	37.6326	1.10748e-07	0.110046
0.092926	37.9744	9.15527e-08	0.0930176
0.0758362	38.3162	7.74536e-08	0.0757141
0.0587463	38.658	5.92651e-08	0.0587463
0.0416565	38.9998	4.23584e-08	0.0418884
0.0245667	39.3416	2.4231e-08	0.0248291
0.00747681	39.6834	7.26318e-09	0.00783081
-0.00961304	40.0252	-1.02234e-08	-0.00930481
-0.0267029	40.367	-2.54517e-08	-0.0263672
-0.0437927	40.7088	-4.44336e-08	-0.043454
-0.0608826	41.0506	-6.11267e-08	-0.0605469
-0.0779724	41.3924	-7.96204e-08	-0.0776367
-0.0950623	41.7342	-9.49402e-08	-0.0946655
-0.112152	42.076	-1.14258e-07	-0.111786
-0.129242	42.4178	-1.29303e-07	-0.128815
-0.146332	42.7596	-1.48041e-07	-0.145874
-0.163422	43.1014	-1.65375e-07	-0.162903
-0.180511	43.4432	-1.79535e-07	-0.179993
-0.197601	43.785	-1.98273e-07	-0.196991
-0.214691	44.1268	-2.15607e-07	-0.213959
-0.231781	44.4686	-2.2879e-07	-0.231079
-0.248871	44.8104	-2.52838e-07	-0.248047
-0.265961	45.1522	-2.60895e-07	-0.265137
-0.283051	45.4939	-2.87598e-07	-0.282196
-0.30014	45.8357	-2.92664e-07	-0.299713
-0.31723	46.1775	-3.19519e-07	-0.316895
-0.33432	46.5193	-3.29895e-07	-0.333954
-0.35141	46.8611	-3.52173e-07	-0.351074
-0.3685	47.2029	-3.66211e-07	-0.368073
-0.38559	47.5447	-3.8208e-07	-0.385162
-0.402679	47.8865	-4.03137e-07	-0.402252
-0.419769	48.2283	-4.13513e-07	-0.419373
-0.436859	48.5701	-4.39758e-07	-0.436401
-0.453949	48.9119	-4.50745e-07	-0.453491
-0.471039	49.2537	-4.73633e-07	-0.470551
-0.488129	49.5955	-4.87061e-07	-0.487671
-0.495453	49.9373	-4.98352e-07	-0.494965
-0.478363	50.2791	-4.77295e-07	-0.477875
-0.461273	50.6209	-4.62646e-07	-0.460846
-0.444183	50.9627	-4.39453e-07	-0.443787
-0.427094	51.3045	-4.29382e-07	-0.426636
-0.410004	51.6463	-4.03442e-07	-0.409576
-0.392914	51.9881	-3.94287e-07	-0.392548
-0.375824	52.3299	-3.71399e-07	-0.375427
-0.358734	52.6717	-3.58887e-07	-0.358337
-0.341644	53.0135	-3.37524e-07	-0.341278
-0.324554	53.3553	-3.22571e-07	-0.324158
-0.307465	53.6971	-3.03955e-07	-0.307068
-0.290375	54.0388	-2.8717e-07	-0.289917
-0.273285	54.3806	-2.70996e-07	-0.272919
-0.256195	54.7224	-2.54517e-07	-0.255798
-0.239105	55.0642	-2.39807e-07	-0.23877
-0.222015	55.406	-2.1759e-07	-0.22168
-0.204926	55.7478	-2.07947e-07	-0.20462
-0.187836	56.0896	-1.80969e-07	-0.1875
-0.170746	56.4314	-1.74866e-07	-0.170502
-0.153656	56.7732	-1.48224e-07	-0.153381
-0.136566	57.115	-1.39221e-07	-0.136292
-0.119476	57.4568	-1.16547e-07	-0.119232
-0.102386	57.7986	-1.01501e-07	-0.102173
-0.0852966	58.1404	-8.57849e-08	-0.0851746
-0.0682068	58.4822	-6.88477e-08	-0.0679321
-0.0511169	58.824	-5.12695e-08	-0.0508728
-0.0340271	59.1658	-3.36609e-08	-0.0337189
-0.0169373	59.5076	-1.68457e-08	-0.0166565
0.000152588	59.8494	2.74658e-10	0.000473022
0.0172424	60.1912	1.77917e-08	0.0175079
0.0343323	60.533	3.33862e-08	0.0345978
0.0514221	60.8748	5.33447e-08	0.0513916
0.068512	61.2166	6.97632e-08	0.0684814
0.0856018	61.5584	8.77991e-08	0.0855408
0.102692	61.9002	1.03058e-07	0.1026
0.119781	62.242	1.2207e-07	0.119537
0.136871	62.5837	1.3623e-07	0.13678
0.153961	62.9255	1.56097e-07	0.153595
0.171051	63.2673	1.68793e-07	0.170898
0.188141	63.6091	1.90033e-07	0.1875
0.205231	63.9509	2.01111e-07	0.204956
0.222321	64.2927	2.27173e-07	0.222015
0.23941	64.6345	2.34161e-07	0.238586
0.2565	64.9763	2.6062e-07	0.256165
0.27359	65.3181	2.69257e-07	0.272614
0.29068	65.6599	2.9364e-07	0.290192
0.30777	66.0017	3.01514e-07	0.307587
0.32486	66.3435	3.25317e-07	0.324707
0.341949	66.6853	3.36609e-07	0.341705
0.359039	67.0271	3.58582e-07	0.358826
0.376129	67.3689	3.71704e-07	0.375854
0.393219	67.7107	3.93982e-07	0.392944
0.410309	68.0525	4.04663e-07	0.410034
0.427399	68.3943	4.28467e-07	0.427063
0.444489	68.7361	4.39758e-07	0.444153
0.461578	69.0779	4.62036e-07	0.461243
0.478668	69.4197	4.7699e-07	0.478271
0.495758	69.7615	4.95605e-07	0.495392
0.488434	70.1033	4.88892e-07	0.488037
0.471344	70.4451	4.68445e-07	0.470978
0.454254	70.7869	4.55322e-07	0.453888
0.437164	71.1286	4.31519e-07	0.43689
0.420074	71.4704	4.20837e-07	0.419739
0.402985	71.8122	3.96729e-07	0.40271
0.385895	72.154	3.87878e-07	0.38562
0.368805	72.4958	3.62549e-07	0.368561
0.351715	72.8376	3.51257e-07	0.35144
0.334625	73.1794	3.28979e-07	0.334442
0.317535	73.5212	3.16772e-07	0.317291
0.300446	73.863	2.92969e-07	0.300262
0.283356	74.2048	2.83813e-07	0.283173
0.266266	74.5466	2.6001e-07	0.266144
0.249176	74.8884	2.50854e-07	0.249084
0.232086	75.2302	2.24609e-07	0.231995
0.214996	75.572	2.18811e-07	0.214935
0.197906	75.9138	1.93024e-07	0.197784
0.180817	76.2556	1.81885e-07	0.180786
0.163727	76.5974	1.60553e-07	0.163635
0.146637	76.9392	1.49017e-07	0.146698
0.129547	77.281	1.27258e-07	0.129578
0.112457	77.6228	1.15143e-07	0.112518
0.0953674	77.9646	9.26208e-08	0.0954285
0.0782776	78.3064	8.00476e-08	0.0783997
0.0611877	78.6482	6.20728e-08	0.0610046
0.0440979	78.99	4.60815e-08	0.0444
0.0270081	79.3318	2.59094e-08	0.0272278
0.00991821	79.6735	9.97925e-09	0.010321
-0.00717163	80.0153	-6.98853e-09	-0.00698853
-0.0242615	80.3571	-2.63367e-08	-0.0239075
-0.0413513	80.6989	-4.13818e-08	-0.0409668
-0.0584412	81.0407	-6.08521e-08	-0.0582581
-0.075531	81.3825	-7.71179e-08	-0.0751343
-0.0926208	81.7243	-9.48792e-08	-0.0922852
-0.109711	82.0661	-1.10901e-07	-0.109344
-0.126801	82.4079	-1.29944e-07	-0.126404
-0.14389	82.7497	-1.44135e-07	-0.143433
-0.16098	83.0915	-1.64185e-07	-0.1604
-0.17807	83.4333	-1.76697e-07	-0.177582
-0.19516	83.7751	-1.96808e-07	-0.19458
-0.21225	84.1169	-2.10266e-07	-0.211578
-0.22934	84.4587	-2.31598e-07	-0.228668
-0.246429	84.8005	-2.44659e-07	-0.245667
-0.263519	85.1423	-2.65686e-07	-0.262726
-0.280609	85.4841	-2.77618e-07	-0.279755
-0.297699	85.8259	-3.01605e-07	-0.296783
-0.314789	86.1677	-3.09753e-07	-0.314484
-0.331879	86.5095	-3.31421e-07	-0.331512
-0.348969	86.8513	-3.41797e-07	-0.348602
-0.366058	87.1931	-3.66516e-07	-0.365692
-0.383148	87.5349	-3.75671e-07	-0.38266
-0.400238	87.8767	-4.03137e-07	-0.399841
-0.417328	88.2184	-4.11377e-07	-0.41687
-0.434418	88.5602	-4.36707e-07	-0.43396
-0.451508	88.902	-4.48914e-07	-0.451111
-0.468597	89.2438	-4.70581e-07	-0.468201
-0.485687	89.5856	-4.87061e-07	-0.485199
-0.497894	89.9274	-5.00183e-07	-0.497406
-0.480804	90.2692	-4.80957e-07	-0.480286
-0.463715	90.611	-4.63562e-07	-0.463287
-0.446625	90.9528	-4.44946e-07	-0.446136
-0.429535	91.2946	-4.296875E-07	-0.429138
-0.412445	91.6364	-4.0802e-07	-0.411987
-0.395355	91.9782	-3.95203e-07	-0.394928
-0.378265	92.32	-3.74756e-07	-0.377869
-0.361176	92.6618	-3.60107e-07	-0.360809
-0.344086	93.0036	-3.41492e-07	-0.343781
-0.326996	93.3454	-3.2196e-07	-0.32666
-0.309906	93.6872	-3.08533e-07	-0.30954
-0.292816	94.029	-2.85645e-07	-0.292419
-0.275726	94.3708	-2.78625e-07	-0.275391
-0.258636	94.7126	-2.51465e-07	-0.25827
-0.241547	95.0544	-2.44446e-07	-0.241241
-0.224457	95.3962	-2.19116e-07	-0.224152
-0.207367	95.738	-2.0752e-07	-0.207062
-0.190277	96.0798	-1.88599e-07	-0.189941
-0.173187	96.4216	-1.69983e-07	-0.172852
-0.156097	96.7633	-1.59454e-07	-0.155823
-0.139008	97.1051	-1.32477e-07	-0.138733
-0.121918	97.4469	-1.25793e-07	-0.121704
-0.104828	97.7887	-1.03119e-07	-0.104584
-0.087738	98.1305	-8.82874e-08	-0.0875244
-0.0706482	98.4723	-7.04651e-08	-0.0703735
-0.0535583	98.8141	-5.3894e-08	-0.0533142
-0.0364685	99.1559	-3.54004e-08	-0.0361084
-0.0193787	99.4977	-1.9104e-08	-0.019046
-0.00228882	99.8395	-2.16675e-09	-0.00198669
0.000152588	99.8883	1.77002e-09	0.000515747

File: cv_data_b.txt
Potential applied (V)	Time (s)	WE(1).Current (A)	WE(1).Potential (V)
0.00259399	16.0112	2.39288e-06	0.00292664
0.0196838	16.353	1.80511e-05	0.0199677
0.0367737	16.6948	3.37219e-05	0.0370422
0.0538635	17.0366	4.93744e-05	0.053894
0.0709534	17.3784	6.5033e-05	0.0708618
0.0880432	17.7202	8.0719e-05	0.0879517
0.105133	18.062	9.63745e-05	0.105011
0.122223	18.4038	0.00011203	0.12207
0.139313	18.7456	0.000127686	0.13916
0.156403	19.0874	0.000143341	0.156189
0.173492	19.4292	0.000159027	0.173218
0.190582	19.771	0.000174683	0.190247
0.207672	20.1128	0.000190338	0.207306
0.224762	20.4546	0.000205994	0.224365
0.241852	20.7964	0.00022168	0.241455
0.258942	21.1382	0.000237335	0.258423
0.276031	21.4799	0.000252991	0.275421
0.293121	21.8217	0.000268646	0.292511
0.310211	22.1635	0.000284302	0.309479
0.327301	22.5053	0.000300018	0.326569
0.344391	22.8471	0.000315918	0.344177
0.361481	23.1889	0.000331573	0.361237
0.378571	23.5307	0.00034726	0.378265
0.39566	23.8725	0.000362915	0.395447
0.41275	24.2143	0.000378571	0.412476
0.42984	24.5561	0.000394257	0.429565
0.44693	24.8979	0.000409912	0.446533
0.46402	25.2397	0.000425568	0.463623
0.48111	25.5815	0.000441223	0.480713
0.498199	25.9233	0.000456909	0.497864
0.485992	26.2651	0.000445709	0.485657
0.468903	26.6069	0.000430054	0.468567
0.451813	26.9487	0.000414368	0.451508
0.434723	27.2905	0.000398712	0.434387
0.417633	27.6323	0.000383057	0.417358
0.400543	27.9741	0.000367371	0.400299
0.383453	28.3159	0.000351715	0.383179
0.366364	28.6577	0.000336029	0.36615
0.349274	28.9995	0.000320374	0.34906
0.332184	29.3413	0.0003046875	0.332001
0.315094	29.6831	0.000289032	0.314941
0.298004	30.0248	0.000273315	0.297821
0.280914	30.3666	0.00025766	0.280731
0.263824	30.7084	0.000242004	0.263641
0.246735	31.0502	0.000226318	0.246643
0.229645	31.392	0.000210663	0.229523
0.212555	31.7338	0.000195007	0.212494
0.195465	32.0756	0.000179321	0.195435
0.178375	32.4174	0.000163666	0.178345
0.161285	32.7592	0.00014798	0.161224
0.144196	33.101	0.000132324	0.144226
0.127106	33.4428	0.000116669	0.127136
0.110016	33.7846	0.000100983	0.110138
0.092926	34.1264	8.52051e-05	0.092865
0.0758362	34.4682	6.9519e-05	0.0757751
0.0587463	34.81	5.38635e-05	0.0587463
0.0416565	35.1518	3.81836e-05	0.0419159
0.0245667	35.4936	2.25342e-05	0.0248596
0.00747681	35.8354	6.86646e-06	0.00777283
-0.00961304	36.1772	-8.79822e-06	-0.0092804
-0.0267029	36.519	-2.44629e-05	-0.0263306
-0.0437927	36.8608	-4.01276e-05	-0.0434265
-0.0608826	37.2026	-5.58167e-05	-0.0605774
-0.0779724	37.5444	-7.15027e-05	-0.0776367
-0.0950623	37.8862	-8.71582e-05	-0.0947571
-0.112152	38.228	-0.000102844	-0.111816
-0.129242	38.5697	-0.0001185	-0.128815
-0.146332	38.9115	-0.000134155	-0.145874
-0.163422	39.2533	-0.000149811	-0.162933
-0.180511	39.5951	-0.000165497	-0.179993
-0.197601	39.9369	-0.000181152	-0.196991
-0.214691	40.2787	-0.000196838	-0.214111
-0.231781	40.6205	-0.000212494	-0.23111
-0.248871	40.9623	-0.00022818	-0.248169
-0.265961	41.3041	-0.000243835	-0.265198
-0.283051	41.6459	-0.000259491	-0.282196
-0.30014	41.9877	-0.000275177	-0.299286
-0.31723	42.3295	-0.000290863	-0.316406
-0.33432	42.6713	-0.000306549	-0.333954
-0.35141	43.0131	-0.000322235	-0.351044
-0.3685	43.3549	-0.000337891	-0.368103
-0.38559	43.6967	-0.000353577	-0.385193
-0.402679	44.0385	-0.000369263	-0.402222
-0.419769	44.3803	-0.000384918	-0.419342
-0.436859	44.7221	-0.000400604	-0.436401
-0.453949	45.0639	-0.00041629	-0.453491
-0.471039	45.4057	-0.000431976	-0.470612
-0.488129	45.7475	-0.000447632	-0.48764
-0.495453	46.0893	-0.000454376	-0.494904
-0.478363	46.4311	-0.00043869	-0.477875
-0.461273	46.7729	-0.000423004	-0.460815
-0.444183	47.1146	-0.000407318	-0.443726
-0.427094	47.4564	-0.000391663	-0.426605
-0.410004	47.7982	-0.000375977	-0.409607
-0.392914	48.14	-0.000360321	-0.392456
-0.375824	48.4818	-0.000344635	-0.375397
-0.358734	48.8236	-0.000328949	-0.358307
-0.341644	49.1654	-0.000313293	-0.341278
-0.324554	49.5072	-0.000297607	-0.324158
-0.307465	49.849	-0.000281921	-0.307068
-0.290375	50.1908	-0.000266235	-0.290009
-0.273285	50.5326	-0.000250549	-0.272949
-0.256195	50.8744	-0.000234894	-0.25589
-0.239105	51.2162	-0.000219208	-0.238739
-0.222015	51.558	-0.000203522	-0.221649
-0.204926	51.8998	-0.000187836	-0.20459
-0.187836	52.2416	-0.00017218	-0.1875
-0.170746	52.5834	-0.000156525	-0.170471
-0.153656	52.9252	-0.000140839	-0.153442
-0.136566	53.267	-0.000125153	-0.136292
-0.119476	53.6088	-0.000109497	-0.119202
-0.102386	53.9506	-9.38416e-05	-0.102173
-0.0852966	54.2924	-7.82166e-05	-0.085022
-0.0682068	54.6342	-6.25305e-05	-0.0679321
-0.0511169	54.976	-4.68414e-05	-0.0508118
-0.0340271	55.3178	-3.1189e-05	-0.0336884
-0.0169373	55.6595	-1.55151e-05	-0.0166107
0.000152588	56.0013	1.44043e-07	0.000479126
0.0172424	56.3431	1.58142e-05	0.017514
0.0343323	56.6849	3.14758e-05	0.0345764
0.0514221	57.0267	4.71313e-05	0.0514221
0.068512	57.3685	6.28052e-05	0.0684814
0.0856018	57.7103	7.84607e-05	0.0854797
0.102692	58.0521	9.41467e-05	0.10257
0.119781	58.3939	0.000109802	0.119629
0.136871	58.7357	0.000125458	0.136688
0.153961	59.0775	0.000141113	0.153778
0.171051	59.4193	0.000156769	0.170807
0.188141	59.7611	0.000172455	0.187836
0.205231	60.1029	0.00018811	0.204895
0.222321	60.4447	0.000203766	0.221954
0.23941	60.7865	0.000219421	0.238983
0.2565	61.1283	0.000235107	0.255951
0.27359	61.4701	0.000250732	0.272919
0.29068	61.8119	0.000266418	0.29007
0.30777	62.1537	0.000282074	0.307129
0.32486	62.4955	0.00029776	0.324158
0.341949	62.8373	0.00031369	0.341736
0.359039	63.1791	0.000329346	0.358826
0.376129	63.5209	0.000345001	0.375824
0.393219	63.8627	0.000360687	0.392975
0.410309	64.2044	0.000376343	0.410034
0.427399	64.5462	0.000392029	0.427124
0.444489	64.888	0.000407654	0.444153
0.461578	65.2298	0.00042334	0.461273
0.478668	65.5716	0.000438995	0.478363
0.495758	65.9134	0.000454681	0.495422
0.488434	66.2552	0.000447968	0.488068
0.471344	66.597	0.000432281	0.470978
0.454254	66.9388	0.000416626	0.453949
0.437164	67.2806	0.00040094	0.436829
0.420074	67.6224	0.000385284	0.4198
0.402985	67.9642	0.000369629	0.40271
0.385895	68.306	0.000353943	0.385651
0.368805	68.6478	0.000338287	0.368591
0.351715	68.9896	0.000322601	0.351471
0.334625	69.3314	0.000306946	0.334412
0.317535	69.6732	0.00029126	0.317352
0.300446	70.015	0.000275574	0.300201
0.283356	70.3568	0.000259888	0.283142
0.266266	70.6986	0.000244232	0.266083
0.249176	71.0404	0.000228577	0.249054
0.232086	71.3822	0.000212891	0.231995
0.214996	71.724	0.000197205	0.214905
0.197906	72.0658	0.000181549	0.197845
0.180817	72.4076	0.000165894	0.180786
0.163727	72.7493	0.000150208	0.163727
0.146637	73.0911	0.000134552	0.146637
0.129547	73.4329	0.000118866	0.129608
0.112457	73.7747	0.00010321	0.112518
0.0953674	74.1165	8.74329e-05	0.0953064
0.0782776	74.4583	7.17468e-05	0.0782471
0.0611877	74.8001	5.60913e-05	0.0611267
0.0440979	75.1419	4.04175e-05	0.0443481
0.0270081	75.4837	2.4765e-05	0.0272888
0.00991821	75.8255	9.10034e-06	0.0102142
-0.00717163	76.1673	-6.56738e-06	-0.00685425
-0.0242615	76.5091	-2.2229e-05	-0.0238861
-0.0413513	76.8509	-3.78937e-05	-0.0410126
-0.0584412	77.1927	-5.35889e-05	-0.058197
-0.075531	77.5345	-6.92444e-05	-0.0752258
-0.0926208	77.8763	-8.49304e-05	-0.0922546
-0.109711	78.2181	-0.000100616	-0.109406
-0.126801	78.5599	-0.000116272	-0.126373
-0.14389	78.9017	-0.000131927	-0.143494
-0.16098	79.2435	-0.000147614	-0.160522
-0.17807	79.5853	-0.000163269	-0.177582
-0.19516	79.9271	-0.000178955	-0.19458
-0.21225	80.2689	-0.000194611	-0.21167
-0.22934	80.6107	-0.000210266	-0.228729
-0.246429	80.9525	-0.000225952	-0.245697
-0.263519	81.2942	-0.000241608	-0.262787
-0.280609	81.636	-0.000257263	-0.279755
-0.297699	81.9778	-0.000272949	-0.296814
-0.314789	82.3196	-0.000288635	-0.313934
-0.331879	82.6614	-0.000304291	-0.331482
-0.348969	83.0032	-0.000320007	-0.348572
-0.366058	83.345	-0.000335663	-0.365631
-0.383148	83.6868	-0.000351349	-0.382721
-0.400238	84.0286	-0.000367035	-0.399841
-0.417328	84.3704	-0.00038269	-0.41687
-0.434418	84.7122	-0.000398376	-0.43396
-0.451508	85.054	-0.0004140625	-0.451111
-0.468597	85.3958	-0.000429718	-0.46814
-0.485687	85.7376	-0.000445404	-0.485199
-0.497894	86.0794	-0.000456604	-0.497406
-0.480804	86.4212	-0.000440918	-0.480316
-0.463715	86.763	-0.000425262	-0.463257
-0.446625	87.1048	-0.000409576	-0.446167
-0.429535	87.4466	-0.000393921	-0.429077
-0.412445	87.7884	-0.000378235	-0.411987
-0.395355	88.1302	-0.000362549	-0.394989
-0.378265	88.472	-0.000346863	-0.377869
-0.361176	88.8138	-0.000331207	-0.36084
-0.344086	89.1556	-0.000315552	-0.343719
-0.326996	89.4974	-0.000299866	-0.326599
-0.309906	89.8391	-0.000284149	-0.309509
-0.292816	90.1809	-0.000268463	-0.292419
-0.275726	90.5227	-0.000252808	-0.27533
-0.258636	90.8645	-0.000237122	-0.25824
-0.241547	91.2063	-0.000221466	-0.241241
-0.224457	91.5481	-0.00020578	-0.224121
-0.207367	91.8899	-0.000190094	-0.207031
-0.190277	92.2317	-0.000174438	-0.189941
-0.173187	92.5735	-0.000158752	-0.172913
-0.156097	92.9153	-0.000143097	-0.155884
-0.139008	93.2571	-0.00012738	-0.138733
-0.121918	93.5989	-0.000111725	-0.121704
-0.104828	93.9407	-9.60693e-05	-0.104614
-0.087738	94.2825	-8.04443e-05	-0.0874634
-0.0706482	94.6243	-6.47888e-05	-0.070343
-0.0535583	94.9661	-4.90875e-05	-0.0532837
-0.0364685	95.3079	-3.3429e-05	-0.0361328
-0.0193787	95.6497	-1.77612e-05	-0.0190491
-0.00228882	95.9915	-2.0932e-06	-0.00198059
0.000152588	96.0403	1.43738e-07	0.000473022