Folder: electrochromicfilms/Edgar/20230626/20230626/electrodeposition_prussian_blue/voltametry_sample_D/voltametria_antes_de_tratamiento

File: OCP_1
Time (s)	WE(1).Potential (V)
9.06588	0.794067
9.16588	0.794067
9.26588	0.794067
9.36588	0.794067
9.46588	0.794067
9.56588	0.794067
9.66588	0.794067
9.76588	0.794067
9.86588	0.794067

File: OCP_3
Time (s)	WE(1).Potential (V)
17.6388	0.793762
17.7388	0.793762
17.8388	0.793762
17.9388	0.793762
18.0388	0.793762
18.1388	0.793762
18.2388	0.793762
18.3388	0.793762
18.4388	0.793762