Folder: electrochromicfilms/Edgar/20230626/20230626/electrodeposition_prussian_blue/electrodeposition_sample_B

File: CP_data_2
Time (s)	WE(1).Potential (V)	WE(1).Current (A)
13.6987	1.27014	7.99866e-05
14.1987	1.52405	8.00781e-05
14.6987	1.5271	7.95593e-05
15.1987	1.52832	8.00171e-05
15.6987	1.52893	8.03223e-05
16.1987	1.52924	7.94983e-05
16.6987	1.52985	7.96814e-05
17.1987	1.53015	8.02612e-05
17.6987	1.53046	8.00171e-05
18.1987	1.53076	8.04749e-05
18.6987	1.53076	7.95593e-05
19.1987	1.53107	7.98035e-05
19.6987	1.53137	8.04443e-05
20.1987	1.53137	7.97424e-05
20.6987	1.53168	7.96204e-05
21.1987	1.53168	8.04138e-05
21.6987	1.53198	8.03223e-05
22.1987	1.53198	7.94678e-05
22.6987	1.53229	8.00476e-05
23.1987	1.53229	7.96814e-05
23.6987	1.53229	7.97424e-05
24.1987	1.53259	8.04443e-05
24.6987	1.53259	7.95288e-05
25.1987	1.5329	8.01392e-05
25.6987	1.5329	8.02917e-05
26.1987	1.5329	8.03528e-05
26.6987	1.5329	8.03528e-05
27.1987	1.5332	7.97424e-05
27.6987	1.5332	8.02307e-05
28.1987	1.5332	8.01697e-05
28.6987	1.53351	8.01086e-05
29.1987	1.53351	8.00476e-05
29.6987	1.53351	7.98035e-05
30.1987	1.53351	7.95898e-05
30.6987	1.53381	8.03528e-05
31.1987	1.53381	8.00781e-05
31.6987	1.53381	7.96204e-05
32.1987	1.53381	7.97119e-05
32.6987	1.53381	7.95898e-05
33.1987	1.53412	8.03223e-05
33.6987	1.53412	7.95593e-05
34.1987	1.53412	8.03223e-05
34.6987	1.53412	8.04443e-05
35.1987	1.53412	8.02917e-05
35.6987	1.53412	8.03833e-05
36.1987	1.53442	7.95593e-05
36.6987	1.53442	8.03833e-05
37.1987	1.53442	7.99561e-05
37.6987	1.53442	8.04138e-05
38.1987	1.53442	8.01086e-05
38.6987	1.53473	7.95898e-05
39.1987	1.53473	8.02307e-05
39.6987	1.53473	7.99866e-05
40.1987	1.53473	8.02917e-05
40.6987	1.53473	7.97119e-05
41.1987	1.53473	8.02917e-05
41.6987	1.53473	7.9834e-05
42.1987	1.53503	7.96814e-05
42.6987	1.53503	8.03223e-05
43.1987	1.53503	7.94983e-05
43.6987	1.53503	8.04749e-05
44.1987	1.53503	7.95898e-05
44.6987	1.53534	8.03833e-05
45.1987	1.53534	7.95593e-05
45.6987	1.53534	8.04138e-05
46.1987	1.53534	8.04138e-05
46.6987	1.53534	7.95288e-05
47.1987	1.53534	7.95898e-05
47.6987	1.53534	8.02917e-05
48.1987	1.53564	7.98035e-05
48.6987	1.53564	7.97424e-05
49.1987	1.53564	7.97729e-05
49.6987	1.53564	8.01697e-05
50.1987	1.53564	7.97729e-05
50.6987	1.53564	7.98645e-05
51.1987	1.53564	7.96509e-05
51.6987	1.53564	8.01697e-05
52.1987	1.53595	7.98035e-05
52.6987	1.53595	8.02307e-05
53.1987	1.53595	7.97729e-05
53.6987	1.53595	8.00476e-05
54.1987	1.53595	7.99255e-05
54.6987	1.53595	8.00171e-05
55.1987	1.53595	8.04138e-05
55.6987	1.53625	7.9895e-05
56.1987	1.53625	8.02002e-05
56.6987	1.53625	7.96814e-05
57.1987	1.53625	8.03223e-05
57.6987	1.53625	7.95593e-05
58.1987	1.53625	8.02612e-05
58.6987	1.53656	7.95898e-05
59.1987	1.53656	8.03223e-05
59.6987	1.53656	7.95898e-05
60.1987	1.53656	8.02612e-05
60.6987	1.53656	8.03223e-05
61.1987	1.53656	7.9895e-05
61.6987	1.53656	7.96204e-05
62.1987	1.53656	8.00476e-05
62.6987	1.53687	7.96509e-05
63.1987	1.53687	8.03528e-05
63.6987	1.53687	8.04443e-05
64.1987	1.53687	7.99561e-05
64.6987	1.53687	8.04138e-05
65.1987	1.53687	7.95593e-05
65.6987	1.53687	8.03833e-05
66.1987	1.53717	7.95288e-05
66.6987	1.53717	7.94678e-05
67.1987	1.53717	7.99561e-05
67.6987	1.53717	7.94678e-05
68.1987	1.53717	8.03833e-05
68.6987	1.53717	7.96204e-05
69.1987	1.53717	8.02917e-05
69.6987	1.53717	8.05054e-05
70.1987	1.53748	8.02917e-05
70.6987	1.53748	8.03223e-05
71.1987	1.53748	7.94983e-05
71.6987	1.53748	8.03833e-05
72.1987	1.53748	7.95593e-05
72.6987	1.53748	7.96509e-05
73.1987	1.53748	7.95288e-05
73.6987	1.53748	7.95593e-05
74.1987	1.53778	8.00171e-05
74.6987	1.53778	8.03223e-05
75.1987	1.53778	7.97729e-05
75.6987	1.53778	8.02307e-05
76.1987	1.53778	7.96509e-05
76.6987	1.53778	7.95593e-05
77.1987	1.53809	8.01697e-05
77.6987	1.53809	7.94983e-05
78.1987	1.53809	8.04138e-05
78.6987	1.53809	8.03223e-05
79.1987	1.53809	7.95288e-05
79.6987	1.53809	7.94983e-05
80.1987	1.53809	8.04443e-05
80.6987	1.53809	7.95288e-05
81.1987	1.53839	8.04138e-05
81.6987	1.53839	7.98035e-05
82.1987	1.53839	7.9895e-05
82.6987	1.53839	7.95593e-05
83.1987	1.53839	8.03833e-05
83.6987	1.53839	7.99866e-05
84.1987	1.53839	8.02002e-05
84.6987	1.53839	7.97729e-05
85.1987	1.53839	7.95898e-05
85.6987	1.53839	8.04443e-05
86.1987	1.5387	7.95593e-05
86.6987	1.5387	8.03223e-05
87.1987	1.5387	7.95593e-05
87.6987	1.5387	8.04443e-05
88.1987	1.5387	8.02612e-05
88.6987	1.5387	7.9834e-05
89.1987	1.539	7.96509e-05
89.6987	1.539	8.03833e-05
90.1987	1.539	7.95288e-05
90.6987	1.539	8.03528e-05
91.1987	1.53931	8.03223e-05
91.6987	1.53931	7.98645e-05
92.1987	1.53931	8.00476e-05
92.6987	1.53931	7.96204e-05
93.1987	1.53931	7.9834e-05
93.6987	1.53931	7.96204e-05
94.1987	1.53931	8.03833e-05
94.6987	1.53961	7.95593e-05
95.1987	1.53931	8.03223e-05
95.6987	1.53961	7.95288e-05
96.1987	1.53961	8.04138e-05
96.6987	1.53961	8.04443e-05
97.1987	1.53961	7.95593e-05
97.6987	1.53961	8.04443e-05
98.1987	1.53961	7.96204e-05
98.6987	1.53961	8.00781e-05
99.1987	1.53961	7.97119e-05
99.6987	1.53961	8.04138e-05
100.199	1.53961	8.00476e-05
100.699	1.53961	8.03833e-05
101.199	1.53992	7.95593e-05
101.699	1.53992	8.02917e-05
102.199	1.53992	7.95898e-05
102.699	1.53992	7.98645e-05
103.199	1.54022	8.03528e-05
103.699	1.54022	7.95898e-05
104.199	1.54022	8.00476e-05
104.699	1.54022	7.94983e-05
105.199	1.54022	7.99866e-05
105.699	1.54022	8.01086e-05
106.199	1.54022	8.02917e-05
106.699	1.54022	7.96204e-05
107.199	1.54022	8.03528e-05
107.699	1.54053	7.96814e-05
108.199	1.54053	7.94067e-05
108.699	1.54053	8.03528e-05
109.199	1.54053	8.02307e-05
109.699	1.54053	7.95288e-05
110.199	1.54053	8.03223e-05
110.699	1.54053	7.95898e-05
111.199	1.54053	8.01086e-05
111.699	1.54053	8.03833e-05
112.199	1.54053	8.03223e-05
112.699	1.54053	7.95288e-05
113.199	1.54053	8.04138e-05
113.699	1.54053	7.94678e-05
114.199	1.54053	8.04138e-05
114.699	1.54053	7.96204e-05
115.199	1.54053	8.01086e-05
115.699	1.54053	7.97424e-05
116.199	1.54053	7.9834e-05
116.699	1.54053	8.01697e-05
117.199	1.54053	7.96204e-05
117.699	1.54053	7.94678e-05
118.199	1.54053	8.04749e-05
118.699	1.54083	7.94983e-05
119.199	1.54053	8.03223e-05
119.699	1.54053	7.94983e-05
120.199	1.54053	8.02612e-05
120.699	1.54083	8.01697e-05
121.199	1.54083	7.98645e-05
121.699	1.54083	8.01086e-05
122.199	1.54083	7.98035e-05
122.699	1.54083	7.95288e-05
123.199	1.54083	8.04749e-05
123.699	1.54083	8.03528e-05
124.199	1.54083	7.96509e-05
124.699	1.54083	8.03833e-05
125.199	1.54083	7.96814e-05
125.699	1.54083	7.97119e-05
126.199	1.54083	8.00476e-05
126.699	1.54083	8.03528e-05
127.199	1.54114	7.95898e-05
127.699	1.54114	8.03833e-05
128.199	1.54114	7.97119e-05
128.699	1.54114	7.96814e-05
129.199	1.54114	8.04443e-05
129.699	1.54114	8.02917e-05
130.199	1.54114	7.96509e-05
130.699	1.54114	8.02917e-05
131.199	1.54114	7.94678e-05
131.699	1.54114	8.03833e-05
132.199	1.54114	8.01697e-05
132.699	1.54114	7.97729e-05
133.199	1.54114	8.00476e-05
133.699	1.54114	7.95898e-05
134.199	1.54114	8.02612e-05
134.699	1.54114	7.99866e-05
135.199	1.54144	8.02002e-05
135.699	1.54114	7.97424e-05
136.199	1.54144	8.02917e-05
136.699	1.54144	7.97424e-05
137.199	1.54144	8.03223e-05
137.699	1.54144	7.95593e-05
138.199	1.54144	8.04443e-05
138.699	1.54144	8.03833e-05
139.199	1.54144	7.96204e-05
139.699	1.54144	8.02917e-05
140.199	1.54175	7.95898e-05
140.699	1.54175	8.02002e-05
141.199	1.54175	8.00781e-05
141.699	1.54175	8.01086e-05
142.199	1.54175	8.02307e-05
142.699	1.54175	7.96814e-05
143.199	1.54175	8.03833e-05
143.699	1.54175	7.95288e-05
144.199	1.54205	7.96509e-05
144.699	1.54205	7.96509e-05
145.199	1.54205	7.96204e-05
145.699	1.54205	8.03833e-05
146.199	1.54205	7.95288e-05
146.699	1.54205	8.02612e-05
147.199	1.54205	8.00171e-05
147.699	1.54236	8.03223e-05
148.199	1.54236	8.04138e-05
148.699	1.54236	7.96204e-05
149.199	1.54236	8.03833e-05
149.699	1.54236	7.95288e-05
150.199	1.54236	8.00171e-05
150.699	1.54236	8.03528e-05
151.199	1.54236	8.03528e-05
151.699	1.54236	7.97424e-05
152.199	1.54266	7.97424e-05
152.699	1.54266	7.99255e-05
153.199	1.54266	7.95288e-05
153.699	1.54266	7.9895e-05
154.199	1.54266	7.96204e-05
154.699	1.54266	8.03223e-05
155.199	1.54266	7.95593e-05
155.699	1.54297	8.03833e-05
156.199	1.54297	8.04443e-05
156.699	1.54297	8.03528e-05
157.199	1.54297	7.99561e-05
157.699	1.54297	7.97729e-05
158.199	1.54327	8.03223e-05
158.699	1.54327	7.96814e-05
159.199	1.54327	7.94678e-05
159.699	1.54327	7.96509e-05
160.199	1.54327	7.95288e-05
160.699	1.54327	8.03528e-05
161.199	1.54327	7.95593e-05
161.699	1.54327	8.03833e-05
162.199	1.54327	8.04138e-05
162.699	1.54327	7.96204e-05
163.199	1.54327	7.97119e-05
163.599	1.54327	8.02917e-05

File: OCP_1
Time (s)	WE(1).Potential (V)
10.9859	1.05286
11.0859	1.05286
11.1859	1.05286
11.2859	1.05286
11.3859	1.05286
11.4859	1.05286
11.5859	1.05286
11.6859	1.05286
11.7859	1.05286

File: OCP_3
Time (s)	WE(1).Potential (V)
164.61	1.32568
165.61	1.29242
166.61	1.27472
167.61	1.26282
168.61	1.25427
169.61	1.24725
170.61	1.24146
171.61	1.23627
172.61	1.23138
173.61	1.22711
174.61	1.22345
175.61	1.21979
176.61	1.21643
177.61	1.21307
178.61	1.21002
179.61	1.20728
180.61	1.20422
181.61	1.20178
182.61	1.19934
183.61	1.1969
184.61	1.19446
185.61	1.19232
186.61	1.19019
187.61	1.18805
188.61	1.18591
189.61	1.18408
190.61	1.18225
191.61	1.18042
192.61	1.17889
193.61	1.17706
194.61	1.17554
195.61	1.17401
196.61	1.17249
197.61	1.17096
198.61	1.16974
199.61	1.16821
200.61	1.16699
201.61	1.16577
202.61	1.16455
203.61	1.16333
204.61	1.16211
205.61	1.16089
206.61	1.15967
207.61	1.15875
208.61	1.15753
209.61	1.15662
210.61	1.1557
211.61	1.15479
212.61	1.15387
213.61	1.15265
214.61	1.15173
215.61	1.15112
216.61	1.15021
217.61	1.14929
218.61	1.14868
219.61	1.14777
220.61	1.14716
221.61	1.14624
222.61	1.14563
223.61	1.14502
224.61	1.14441
225.61	1.1438
226.61	1.14319
227.61	1.14227
228.61	1.14166
229.61	1.14105
230.61	1.14044
231.61	1.13983
232.61	1.13953
233.61	1.13892
234.61	1.13831
235.61	1.1377
236.61	1.13708
237.61	1.13678
238.61	1.13617
239.61	1.13556
240.61	1.13525
241.61	1.13464
242.61	1.13403
243.61	1.13373
244.61	1.13312
245.61	1.13281
246.61	1.1322
247.61	1.1319
248.61	1.13129
249.61	1.13098
250.61	1.13037
251.61	1.13007
252.61	1.12976
253.61	1.12915
254.61	1.12885
255.61	1.12854
256.61	1.12793
257.61	1.12762
258.61	1.12732
259.61	1.12671
260.61	1.1264
261.61	1.1261
262.61	1.12579
263.61	1.12518
264.61	1.12488
265.61	1.12457
266.61	1.12427
267.61	1.12396
268.61	1.12335
269.61	1.12305
270.61	1.12274
271.61	1.12244
272.61	1.12213
273.61	1.12183
274.61	1.12152
275.61	1.12122
276.61	1.12091
277.61	1.12061
278.61	1.1203
279.61	1.12
280.61	1.11969
281.61	1.11938
282.61	1.11908
283.61	1.11877
284.61	1.11847
285.61	1.11816
286.61	1.11786
287.61	1.11755
288.61	1.11725
289.61	1.11694
290.61	1.11664
291.61	1.11633
292.61	1.11633
293.61	1.11603
294.61	1.11572
295.61	1.11572
296.61	1.11542
297.61	1.11511
298.61	1.11511
299.61	1.11481
300.61	1.1145
301.61	1.1145
302.61	1.1142
303.61	1.11389
304.61	1.11389
305.61	1.11359
306.61	1.11328
307.61	1.11328
308.61	1.11298
309.61	1.11298
310.61	1.11267
311.61	1.11237
312.61	1.11237
313.61	1.11206
314.61	1.11206
315.61	1.11176
316.61	1.11176
317.61	1.11145
318.61	1.11115
319.61	1.11115
320.61	1.11084
321.61	1.11084
322.61	1.11053
323.61	1.11023
324.61	1.11023
325.61	1.10992
326.61	1.10992
327.61	1.10962
328.61	1.10931
329.61	1.10931
330.61	1.10901
331.61	1.1087
332.61	1.1087
333.61	1.1084
334.61	1.10809
335.61	1.10809
336.61	1.10779
337.61	1.10779
338.61	1.10748
339.61	1.10718
340.61	1.10718
341.61	1.10687
342.61	1.10687
343.61	1.10657
344.61	1.10657
345.61	1.10626
346.61	1.10626
347.61	1.10596
348.61	1.10565
349.61	1.10565
350.61	1.10535
351.61	1.10535
352.61	1.10504
353.61	1.10504
354.61	1.10474
355.61	1.10474
356.61	1.10443
357.61	1.10443
358.61	1.10413
359.61	1.10413
360.61	1.10382
361.61	1.10382
362.61	1.10352
363.61	1.10352
364.61	1.10352
365.61	1.10321
366.61	1.10321
367.61	1.10291
368.61	1.10291
369.61	1.1026
370.61	1.1026
371.61	1.10229
372.61	1.10229
373.61	1.10199
374.61	1.10199
375.61	1.10199
376.61	1.10168
377.61	1.10168
378.61	1.10138
379.61	1.10138
380.61	1.10138
381.61	1.10107
382.61	1.10107
383.61	1.10107
384.61	1.10077
385.61	1.10077
386.61	1.10077
387.61	1.10046
388.61	1.10046
389.61	1.10046
390.61	1.10016
391.61	1.10016
392.61	1.10016
393.61	1.10016
394.61	1.09985
395.61	1.09985
396.61	1.09985
397.61	1.09955
398.61	1.09955
399.61	1.09955
400.61	1.09955
401.61	1.09924
402.61	1.09924
403.61	1.09924
404.61	1.09894
405.61	1.09894
406.61	1.09894
407.61	1.09863
408.61	1.09863
409.61	1.09863
410.61	1.09863
411.61	1.09833
412.61	1.09833
413.61	1.09833
414.61	1.09802
415.61	1.09802
416.61	1.09802
417.61	1.09772
418.61	1.09772
419.61	1.09772
420.61	1.09741
421.61	1.09741
422.61	1.09741
423.61	1.09711
424.61	1.09711
425.61	1.0968
426.61	1.0968
427.61	1.0968
428.61	1.0965
429.61	1.0965
430.61	1.0965
431.61	1.09619
432.61	1.09619
433.61	1.09619
434.61	1.09589
435.61	1.09589
436.61	1.09589
437.61	1.09558
438.61	1.09558
439.61	1.09558
440.61	1.09528
441.61	1.09528
442.61	1.09528
443.61	1.09497
444.61	1.09497
445.61	1.09497
446.61	1.09497
447.61	1.09467
448.61	1.09467
449.61	1.09467
450.61	1.09436
451.61	1.09436
452.61	1.09436
453.61	1.09436
454.61	1.09406
455.61	1.09406
456.61	1.09406
457.61	1.09406
458.61	1.09375
459.61	1.09375
460.61	1.09375
461.61	1.09375
462.61	1.09344
463.61	1.09344