Folder: electrochromicfilms/Edgar/20230626/20230626/electrodeposition_prussian_blue/electrodeposition_sample_D

File: CP_data_2
Time (s)	WE(1).Potential (V)	WE(1).Current (A)
71.2827	0.793152	8.04443e-05
71.7827	0.793762	7.95593e-05
72.2827	0.794373	8.03833e-05
72.7827	0.794983	7.96814e-05
73.2827	0.795593	8.00171e-05
73.7827	0.795898	8.02917e-05
74.2827	0.796509	8.02917e-05
74.7827	0.797119	7.96814e-05
75.2827	0.797424	7.95898e-05
75.7827	0.798035	8.00781e-05
76.2827	0.79834	7.96509e-05
76.7827	0.79895	7.96814e-05
77.2827	0.799255	7.96509e-05
77.7827	0.799561	7.97119e-05
78.2827	0.800171	8.01392e-05
78.7827	0.800476	8.03833e-05
79.2827	0.801086	8.03528e-05
79.7827	0.801392	8.03223e-05
80.2827	0.801697	8.00781e-05
80.7827	0.802307	8.04138e-05
81.2827	0.802612	8.02612e-05
81.7827	0.802917	7.95593e-05
82.2827	0.803223	7.99255e-05
82.7827	0.803223	8.00171e-05
83.2827	0.803833	8.02307e-05
83.7827	0.803833	8.02307e-05
84.2827	0.804138	8.02307e-05
84.7827	0.804749	8.02612e-05
85.2827	0.805054	7.96814e-05
85.7827	0.805359	7.9834e-05
86.2827	0.805664	7.96204e-05
86.7827	0.805969	7.95288e-05
87.2827	0.806274	7.96814e-05
87.7827	0.80658	7.99866e-05
88.2827	0.806274	8.02612e-05
88.7827	0.803528	8.04138e-05
89.2827	0.805664	8.03223e-05
89.7827	0.805359	8.01697e-05
90.2827	0.801697	8.02612e-05
90.7827	0.805054	8.00476e-05
91.2827	0.804138	8.00781e-05
91.7827	0.805664	8.02307e-05
92.2827	0.805054	8.02917e-05
92.7827	0.803833	8.03223e-05
93.2827	0.805969	8.03528e-05
93.7827	0.80658	8.03223e-05
94.2827	0.806274	8.03223e-05
94.7827	0.804749	7.98645e-05
95.2827	0.802612	7.94983e-05
95.7827	0.805054	7.94983e-05
96.2827	0.805664	7.94373e-05
96.7827	0.801086	8.03528e-05
97.2827	0.800171	8.03223e-05
97.7827	0.802917	8.03223e-05
98.2827	0.803528	8.04138e-05
98.7827	0.803528	7.9895e-05
99.2827	0.805664	7.95288e-05
99.7827	0.805054	7.94983e-05
100.283	0.803223	7.9895e-05
100.783	0.804138	7.9895e-05
101.283	0.802002	8.03833e-05
101.783	0.802917	7.9834e-05
102.283	0.803833	7.95288e-05
102.783	0.804749	7.95288e-05
103.283	0.804749	7.97729e-05
103.783	0.804443	7.96814e-05
104.283	0.806885	7.9834e-05
104.783	0.805969	7.97729e-05
105.283	0.806885	7.95898e-05
105.783	0.807495	7.95288e-05
106.283	0.808105	8.02002e-05
106.783	0.8078	8.03833e-05
107.283	0.80719	7.99255e-05
107.783	0.80719	7.97119e-05
108.283	0.8078	7.96509e-05
108.783	0.809631	7.96814e-05
109.283	0.809021	7.94983e-05
109.783	0.809326	7.98035e-05
110.283	0.809021	7.95898e-05
110.783	0.807495	8.04749e-05
111.283	0.807495	7.97119e-05
111.783	0.80719	8.00476e-05
112.283	0.806274	7.99561e-05
112.783	0.808105	8.02307e-05
113.283	0.805054	8.03528e-05
113.783	0.804443	8.03528e-05
114.283	0.804749	8.02612e-05
114.783	0.808105	8.02307e-05
115.283	0.805664	8.04443e-05
115.783	0.802917	7.97729e-05
116.283	0.798645	8.00171e-05
116.783	0.801392	8.02917e-05
117.283	0.806274	8.04138e-05
117.783	0.804443	7.96509e-05
118.283	0.804138	7.95288e-05
118.783	0.805359	7.95288e-05
119.283	0.797729	7.95288e-05
119.783	0.800781	7.95288e-05
120.283	0.804443	8.02917e-05
120.783	0.803528	8.04138e-05
121.283	0.800171	7.9834e-05
121.783	0.804443	7.95898e-05
122.283	0.794678	7.95593e-05
122.783	0.799561	7.96814e-05
123.283	0.801392	7.96814e-05
123.783	0.803528	7.99561e-05
124.283	0.801392	8.03223e-05
124.783	0.799866	7.98035e-05
125.283	0.797729	7.95593e-05
125.783	0.799866	8.03223e-05
126.283	0.802307	7.97424e-05
126.783	0.802917	7.94983e-05
127.283	0.803528	7.95288e-05
127.783	0.799255	7.95898e-05
128.283	0.803833	7.95593e-05
128.783	0.802612	7.94373e-05
129.283	0.801086	7.92542e-05
129.783	0.800171	8.01086e-05
130.283	0.803223	7.91626e-05
130.783	0.802917	7.90405e-05
131.283	0.801086	8.03223e-05
131.783	0.79895	8.09326e-05
132.283	0.802307	8.0719e-05
132.783	0.803528	8.00781e-05
133.283	0.798645	7.91626e-05
133.783	0.803833	7.8949e-05
134.283	0.801697	8.04443e-05
134.783	0.804443	7.93762e-05
135.283	0.801086	7.86743e-05
135.783	0.803223	7.88879e-05
136.283	0.804138	7.89185e-05
136.783	0.79895	7.87659e-05
137.283	0.799866	7.87659e-05
137.783	0.803833	7.89185e-05
138.283	0.800476	7.95288e-05
138.783	0.79895	8.08716e-05
139.283	0.803833	8.09326e-05
139.783	0.800476	8.02917e-05
140.283	0.802612	7.92542e-05
140.783	0.802917	7.86133e-05
141.283	0.798035	8.10242e-05
141.783	0.801697	8.12988e-05
142.283	0.800781	7.91626e-05
142.783	0.796509	7.85828e-05
143.283	0.803833	7.98035e-05
143.783	0.797119	7.94067e-05
144.283	0.794678	8.06885e-05
144.783	0.803528	8.15735e-05
145.283	0.79834	7.97119e-05
145.783	0.796509	7.86438e-05
146.283	0.802612	8.11157e-05
146.783	0.799866	8.02002e-05
147.283	0.803223	7.89185e-05
147.783	0.799866	7.85522e-05
148.283	0.803528	7.88269e-05
148.783	0.800171	7.87048e-05
149.283	0.797729	8.02002e-05
149.783	0.802917	7.96204e-05
150.283	0.802917	7.87354e-05
150.783	0.796509	8.06885e-05
151.283	0.796509	8.10242e-05
151.783	0.802612	7.91626e-05
152.283	0.79834	7.901e-05
152.783	0.796509	7.86438e-05
153.283	0.799561	7.90405e-05
153.783	0.802002	8.10852e-05
154.283	0.799866	8.12073e-05
154.783	0.795288	7.95593e-05
155.283	0.801697	7.96814e-05
155.783	0.801697	7.91016e-05
156.283	0.796509	7.92847e-05
156.783	0.795898	8.04138e-05
157.283	0.800781	8.08105e-05
157.783	0.800781	8.02307e-05
158.283	0.792542	7.88879e-05
158.783	0.796509	7.93762e-05
159.283	0.800476	8.0719e-05
159.783	0.794678	8.09326e-05
160.283	0.79895	8.02002e-05
160.783	0.801086	8.12988e-05
161.283	0.79834	8.01392e-05
161.783	0.798645	8.11768e-05
162.283	0.801697	8.13293e-05
162.783	0.799866	7.8949e-05
163.283	0.79834	7.91016e-05
163.783	0.800171	7.86438e-05
164.283	0.799255	7.87048e-05
164.783	0.801086	7.85828e-05
165.283	0.79895	7.84607e-05
165.783	0.802307	8.00476e-05
166.283	0.799561	7.901e-05
166.783	0.796204	7.84912e-05
167.283	0.800476	7.91626e-05
167.783	0.802917	7.95288e-05
168.283	0.800476	7.85522e-05
168.783	0.802917	7.87964e-05
169.283	0.802612	7.84607e-05
169.783	0.802002	7.84912e-05
170.283	0.801086	7.84302e-05
170.783	0.800781	7.91626e-05
171.283	0.803223	7.88269e-05
171.783	0.802307	7.86438e-05
172.283	0.801392	7.87964e-05
172.783	0.800781	8.02612e-05
173.283	0.796814	7.96509e-05
173.783	0.795593	7.9071e-05
174.283	0.802917	8.06274e-05
174.783	0.801697	8.11157e-05
175.283	0.797119	8.11462e-05
175.783	0.795288	8.15125e-05
176.283	0.801697	7.99561e-05
176.783	0.801697	8.14819e-05
177.283	0.793152	8.14819e-05
177.783	0.787354	7.91626e-05
178.283	0.794678	7.85522e-05
178.783	0.793152	7.92542e-05
179.283	0.796814	8.04138e-05
179.783	0.791931	8.1604e-05
180.283	0.795593	7.82471e-05
180.783	0.794983	8.1665e-05
181.283	0.793457	7.84302e-05
181.783	0.794373	8.15735e-05
182.283	0.784302	7.87354e-05
182.783	0.789795	8.02612e-05
183.283	0.791016	8.09631e-05
183.783	0.795288	7.85828e-05
184.283	0.788574	8.13599e-05
184.783	0.781555	7.85522e-05
185.283	0.783691	8.10547e-05
185.783	0.786438	7.91016e-05
186.283	0.792542	8.15735e-05
186.783	0.787354	7.86133e-05
187.283	0.778809	7.89185e-05
187.783	0.782776	8.1604e-05
188.283	0.7901	7.92236e-05
188.783	0.779419	7.89185e-05
189.283	0.776062	8.12378e-05
189.783	0.78949	8.00171e-05
190.283	0.785217	7.84302e-05
190.783	0.781555	8.17261e-05
191.283	0.78125	8.1543e-05
191.783	0.78064	7.84302e-05
192.283	0.786133	8.14514e-05
192.783	0.775146	7.85828e-05
193.283	0.783691	8.03833e-05
193.783	0.785217	8.09631e-05
194.283	0.7724	7.83997e-05
194.783	0.772705	8.13599e-05
195.283	0.776367	8.14819e-05
195.783	0.775452	7.85522e-05
196.283	0.782166	7.85522e-05
196.783	0.776367	7.90405e-05
197.283	0.78125	8.10547e-05
197.783	0.774231	7.83691e-05
198.283	0.776062	8.18176e-05
198.783	0.775757	7.82776e-05
199.283	0.780334	8.14819e-05
199.783	0.779114	7.83081e-05
200.283	0.772095	7.87048e-05
200.783	0.769043	7.87964e-05
201.283	0.77179	8.05359e-05
201.783	0.77301	7.95593e-05
202.283	0.776672	8.08411e-05
202.783	0.780029	7.88879e-05
203.283	0.773621	8.1604e-05
203.783	0.771484	7.85828e-05
204.283	0.776672	8.11462e-05
204.783	0.778503	8.01086e-05
205.283	0.770569	7.83997e-05
205.783	0.769958	8.14209e-05
206.283	0.778809	7.84607e-05
206.783	0.770264	7.99255e-05
207.283	0.772705	8.14514e-05
207.783	0.778503	7.98035e-05
208.283	0.768738	7.87964e-05
208.783	0.764771	7.83691e-05
209.283	0.772705	7.85828e-05
209.783	0.775757	7.8949e-05
210.283	0.776367	7.85828e-05
210.783	0.768433	7.8186e-05
211.283	0.768738	8.0719e-05
211.783	0.777283	8.05664e-05
212.283	0.774841	7.89185e-05
212.783	0.770569	8.02307e-05
213.283	0.767517	7.92236e-05
213.783	0.770874	8.05969e-05
214.283	0.773621	7.89185e-05
214.783	0.776367	7.84607e-05
215.283	0.776367	8.02002e-05
215.783	0.774536	8.15125e-05
216.283	0.767212	8.19702e-05
216.783	0.767822	7.84912e-05
217.283	0.775146	7.85828e-05
217.783	0.775452	7.85217e-05
218.283	0.773315	7.83997e-05
218.783	0.768127	7.85522e-05
219.283	0.768127	7.82471e-05
219.783	0.769043	8.06274e-05
220.283	0.770569	8.17566e-05
220.783	0.775452	8.19397e-05
221.183	0.762634	8.14514e-05

File: OCP_1
Time (s)	WE(1).Potential (V)
9.09588	0.73761
9.29588	0.737915
9.49588	0.73822
9.69588	0.738831
9.89588	0.739136
10.0959	0.739441
10.2959	0.739746
10.4959	0.740356
10.6959	0.740662
10.8959	0.740967
11.0959	0.741272
11.2959	0.741577
11.4959	0.741882
11.6959	0.742493
11.8959	0.742798
12.0959	0.743103
12.2959	0.743408
12.4959	0.743713
12.6959	0.744019
12.8959	0.744324
13.0959	0.744629
13.2959	0.744934
13.4959	0.745239
13.6959	0.745544
13.8959	0.74585
14.0959	0.746155
14.2959	0.74646
14.4959	0.746765
14.6959	0.74707
14.8959	0.747375
15.0959	0.747681
15.2959	0.747986
15.4959	0.748291
15.6959	0.748596
15.8959	0.748901
16.0959	0.749207
16.2959	0.749512
16.4959	0.749817
16.6959	0.749817
16.8959	0.750122
17.0959	0.750427
17.2959	0.750732
17.4959	0.751038
17.6959	0.751343
17.8959	0.751648
18.0959	0.751648
18.2959	0.751953
18.4959	0.752258
18.6959	0.752563
18.8959	0.752869
19.0959	0.753174
19.2959	0.753174
19.4959	0.753479
19.6959	0.753784
19.8959	0.754089
20.0959	0.754089
20.2959	0.754395
20.4959	0.7547
20.6959	0.755005
20.8959	0.75531
21.0959	0.75531
21.2959	0.755615
21.4959	0.75592
21.6959	0.75592
21.8959	0.756226
22.0959	0.756531
22.2959	0.756836
22.4959	0.756836
22.6959	0.757141
22.8959	0.757446
23.0959	0.757751
23.2959	0.757751
23.4959	0.758057
23.6959	0.758362
23.8959	0.758362
24.0959	0.758667
24.2959	0.758972
24.4959	0.758972
24.6959	0.759277
24.8959	0.759583
25.0959	0.759583
25.2959	0.759888
25.4959	0.760193
25.6959	0.760193
25.8959	0.760498
26.0959	0.760803
26.2959	0.760803
26.4959	0.761108
26.6959	0.761108
26.8959	0.761414
27.0959	0.761719
27.2959	0.761719
27.4959	0.762024
27.6959	0.762329
27.8959	0.762329
28.0959	0.762634
28.2959	0.762634
28.4959	0.762939
28.6959	0.763245
28.8959	0.763245
29.0959	0.76355
29.2959	0.76355
29.4959	0.763855
29.6959	0.763855
29.8959	0.76416
30.0959	0.764465
30.2959	0.764465
30.4959	0.764771
30.6959	0.764771
30.8959	0.765076
31.0959	0.765076
31.2959	0.765381
31.4959	0.765686
31.6959	0.765686
31.8959	0.765991
32.0959	0.765991
32.2959	0.766296
32.4959	0.766296
32.6959	0.766602
32.8959	0.766602
33.0959	0.766907
33.2959	0.767212
33.4959	0.767212
33.6959	0.767517
33.8959	0.767517
34.0959	0.767822
34.2959	0.767822
34.4959	0.768127
34.6959	0.768127
34.8959	0.768433
35.0959	0.768433
35.2959	0.768738
35.4959	0.768738
35.6959	0.769043
35.8959	0.769043
36.0959	0.769348
36.2959	0.769348
36.4959	0.769653
36.6959	0.769653
36.8959	0.769958
37.0959	0.769958
37.2959	0.770264
37.4959	0.770264
37.6959	0.770569
37.8959	0.770569
38.0959	0.770874
38.2959	0.770874
38.4959	0.771179
38.6959	0.771179
38.8959	0.771484
39.0959	0.771484
39.2959	0.77179
39.4959	0.77179
39.6959	0.77179
39.8959	0.772095
40.0959	0.772095
40.2959	0.7724
40.4959	0.7724
40.6959	0.772705
40.8959	0.772705
41.0959	0.77301
41.2959	0.77301
41.4959	0.773315
41.6959	0.773315
41.8959	0.773621
42.0959	0.773621
42.2959	0.773621
42.4959	0.773926
42.6959	0.773926
42.8959	0.774231
43.0959	0.774231
43.2959	0.774536
43.4959	0.774536
43.6959	0.774841
43.8959	0.774841
44.0959	0.774841
44.2959	0.775146
44.4959	0.775146
44.6959	0.775452
44.8959	0.775452
45.0959	0.775757
45.2959	0.775757
45.4959	0.775757
45.6959	0.776062
45.8959	0.776062
46.0959	0.776367
46.2959	0.776367
46.4959	0.776367
46.6959	0.776672
46.8959	0.776672
47.0959	0.776978
47.2959	0.776978
47.4959	0.777283
47.6959	0.777283
47.8959	0.777283
48.0959	0.777588
48.2959	0.777588
48.4959	0.777893
48.6959	0.777893
48.8959	0.777893
49.0959	0.778198
49.2959	0.778198
49.4959	0.778503
49.6959	0.778503
49.8959	0.778503
50.0959	0.778809
50.2959	0.778809
50.4959	0.779114
50.6959	0.779114
50.8959	0.779114
51.0959	0.779419
51.2959	0.779419
51.4959	0.779724
51.6959	0.779724
51.8959	0.779724
52.0959	0.780029
52.2959	0.780029
52.4959	0.780029
52.6959	0.780334
52.8959	0.780334
53.0959	0.78064
53.2959	0.78064
53.4959	0.78064
53.6959	0.780945
53.8959	0.780945
54.0959	0.78125
54.2959	0.78125
54.4959	0.78125
54.6959	0.781555
54.8959	0.781555
55.0959	0.781555
55.2959	0.78186
55.4959	0.78186
55.6959	0.782166
55.8959	0.782166
56.0959	0.782166
56.2959	0.782471
56.4959	0.782471
56.6959	0.782471
56.8959	0.782776
57.0959	0.782776
57.2959	0.782776
57.4959	0.783081
57.6959	0.783081
57.8959	0.783386
58.0959	0.783386
58.2959	0.783386
58.4959	0.783691
58.6959	0.783691
58.8959	0.783691
59.0959	0.783997
59.2959	0.783997
59.4959	0.783997
59.6959	0.784302
59.8959	0.784302
60.0959	0.784302
60.2959	0.784607
60.4959	0.784607
60.6959	0.784607
60.8959	0.784912
61.0959	0.784912
61.2959	0.784912
61.4959	0.785217
61.6959	0.785217
61.8959	0.785217
62.0959	0.785522
62.2959	0.785522
62.4959	0.785522
62.6959	0.785828
62.8959	0.785828
63.0959	0.785828
63.2959	0.786133
63.4959	0.786133
63.6959	0.786133
63.8959	0.786438
64.0959	0.786438
64.2959	0.786438
64.4959	0.786743
64.6959	0.786743
64.8959	0.786743
65.0959	0.787048
65.2959	0.787048
65.4959	0.787048
65.6959	0.787354
65.8959	0.787354
66.0959	0.787354
66.2959	0.787659
66.4959	0.787659
66.6959	0.787659
66.8959	0.787964
67.0959	0.787964
67.2959	0.787964
67.4959	0.788269
67.6959	0.788269
67.8959	0.788269
68.0959	0.788574
68.2959	0.788574
68.4959	0.788574
68.6959	0.788879
68.8959	0.788879
68.9959	0.788879

File: OCP_3
Time (s)	WE(1).Potential (V)
222.194	0.767517
223.194	0.769958
224.194	0.770264
225.194	0.770874
226.194	0.771179
227.194	0.771179
228.194	0.771484
229.194	0.77179
230.194	0.772095
231.194	0.772095
232.194	0.7724
233.194	0.772705
234.194	0.772705
235.194	0.77301
236.194	0.77301
237.194	0.773315
238.194	0.773315
239.194	0.773315
240.194	0.773621
241.194	0.773621
242.194	0.773926
243.194	0.773926
244.194	0.773926
245.194	0.773926
246.194	0.774231
247.194	0.774231
248.194	0.774231
249.194	0.774231
250.194	0.774231
251.194	0.774231
252.194	0.774231
253.194	0.774231
254.194	0.774231
255.194	0.774231
256.194	0.774231
257.194	0.774231