Folder: electrochromicfilms/Edgar/20230626/20230626/electrodeposition_prussian_blue/voltametry_sample_D

File: CV_2
Time (s)	WE(1).Potential (V)	WE(1).Current (A)
72.3617	0.477051	8.32825e-06
74.9252	0.527191	5.28564e-05
77.4886	0.578796	6.10352e-05
80.0521	0.625061	6.31409e-05
82.6156	0.574463	3.50616e-05
85.1791	0.522705	6.12183e-06
87.7425	0.471741	-6.46362e-05
90.306	0.421204	-0.000206879
92.8695	0.369202	-0.000408356
95.4329	0.318115	-0.000656738
97.9964	0.266388	-0.00102478
100.56	0.216309	-0.0016571
103.123	0.165344	-0.00281342
105.687	0.114166	-0.00275024
108.25	0.0627747	-0.00243591
110.814	0.0104218	-0.00216949
113.377	-0.0398956	-0.00193268
115.941	-0.09198	-0.00176208
118.504	-0.142242	-0.00165192
121.068	-0.154572	-0.00150391
123.631	-0.104065	-0.00131134
126.195	-0.052002	-0.00112396
128.758	-0.000878906	-0.000909424
131.322	0.0495514	-0.000648804
133.885	0.101593	-0.000324615
136.448	0.152527	8.10547e-05
139.012	0.203125	0.000605469
141.575	0.254028	0.00126678
144.139	0.30481	0.00230316
146.702	0.357086	0.00196045
149.266	0.407593	0.00114258
151.829	0.459869	0.000845947
154.393	0.510315	0.000699463
156.956	0.561249	0.000628357
159.52	0.613007	0.000585022
162.083	0.590729	0.000482208
164.647	0.540314	0.000395172
167.21	0.488281	0.000302673
169.774	0.438141	0.000168091
172.337	0.385925	-1.7392e-05
174.901	0.334961	-0.000243317
177.464	0.284088	-0.000577087
180.027	0.232849	-0.00116608
182.591	0.181305	-0.0023407
185.154	0.130859	-0.00252472
187.718	0.0799866	-0.0021521
190.281	0.0278931	-0.00190186
192.845	-0.02276	-0.00167145
195.408	-0.0749817	-0.00149689
197.972	-0.12558	-0.0013797
200.535	-0.172333	-0.00128052
203.099	-0.121307	-0.001073
205.662	-0.0702515	-0.000888062
208.226	-0.0177948	-0.000688782
210.789	0.0324738	-0.000458252
213.353	0.0845032	-0.000181152
215.916	0.134735	0.000158112
218.479	0.186523	0.000593567
221.043	0.237549	0.00115784
223.606	0.288849	0.00200928
226.17	0.339386	0.0025589
228.733	0.391541	0.00145111
231.297	0.442017	0.00102966
233.86	0.493225	0.000837402
236.424	0.545135	0.000747681
238.987	0.595398	0.000697632
241.551	0.60791	0.000611877
244.114	0.557129	0.000506287
246.678	0.505341	0.00040976
249.241	0.454987	0.00028479
251.805	0.403015	0.000108246
254.368	0.352844	-0.000106628
256.932	0.301392	-0.000395874
259.495	0.249329	-0.000891113
262.058	0.199005	-0.00181549
264.622	0.147949	-0.00260742
267.185	0.0958557	-0.00220459
269.749	0.0453552	-0.0019281
272.312	-0.00671997	-0.00167847
274.876	-0.0577087	-0.00147675
277.439	-0.108826	-0.0013382
280.003	-0.159973	-0.00123932
282.566	-0.137939	-0.00105652
285.13	-0.0867004	-0.000879517
287.693	-0.0350769	-0.000699463
290.257	0.0151917	-0.0004921875
292.82	0.0672302	-0.000241547
295.384	0.1171875	6.81458e-05
297.947	0.168732	0.000460236
300.511	0.219818	0.000979614
303.074	0.270813	0.00168213
305.637	0.322662	0.00264709
308.201	0.374146	0.00180237
310.764	0.425781	0.00117249
313.328	0.476013	0.00092804
315.891	0.528046	0.000814209
318.455	0.579346	0.000757751
321.018	0.624878	0.00071167
323.582	0.573456	0.00058197
326.145	0.52243	0.000482117
328.709	0.47168	0.000367035
331.272	0.421021	0.000204651
333.836	0.368713	-1.92261e-07
336.399	0.318756	-0.000256226
338.963	0.266724	-0.000667419
341.526	0.216278	-0.00139099
344.09	0.164612	-0.0025882
346.653	0.113617	-0.00231415
349.216	0.0618286	-0.00198303
351.78	0.0107819	-0.00171509
354.343	-0.0406067	-0.0014859
356.907	-0.0910645	-0.00132416
359.47	-0.142212	-0.00121246
362.034	-0.155182	-0.00106903
364.597	-0.103912	-0.000891113
367.161	-0.0531311	-0.000721741
369.724	-0.00185852	-0.000531921
372.288	0.0493164	-0.000303314
374.851	0.10141	-2.01172e-05
377.415	0.151459	0.000334991
379.978	0.20285	0.000803833
382.542	0.254242	0.00141876
385.105	0.304993	0.00240021
387.669	0.357269	0.00228424
390.232	0.407593	0.00132965
392.795	0.459259	0.00101288
395.359	0.511017	0.000864868
397.922	0.561981	0.000797424
400.486	0.61264	0.000758667
403.049	0.590698	0.000643311
405.613	0.539276	0.000538635
408.176	0.4888	0.000430817
410.74	0.437683	0.000284729
413.303	0.385742	9.11255e-05
415.867	0.334778	-0.000141998
418.43	0.284515	-0.000484863
420.994	0.232971	-0.001091
423.557	0.181915	-0.00231781
426.121	0.130646	-0.00246094
428.684	0.0791626	-0.00205872
431.248	0.0283142	-0.00177185
433.811	-0.0229706	-0.00152069
436.374	-0.0744019	-0.00133667
438.938	-0.125214	-0.00120972
441.501	-0.171631	-0.00111023
444.065	-0.121124	-0.000917664
446.628	-0.0700989	-0.000752563
449.192	-0.0187805	-0.000574951
451.755	0.0324402	-0.000364227
454.319	0.0841675	-0.000104492
456.882	0.134216	0.000220337
459.446	0.186096	0.00064209
462.009	0.236938	0.00120026
464.573	0.28891	0.00203461
467.136	0.339996	0.00266876
469.7	0.390717	0.00154541
472.263	0.442505	0.00110809
474.826	0.493317	0.000916748
477.39	0.545258	0.000830994
479.953	0.596161	0.000786438
482.517	0.607666	0.000701294
485.08	0.556366	0.000588074
487.644	0.505463	0.000483856
490.207	0.454468	0.000353271
492.771	0.402985	0.000173218
495.334	0.351715	-4.41589e-05
497.898	0.300476	-0.000336365
500.461	0.249908	-0.000839233
503.025	0.198212	-0.00179535
505.588	0.147186	-0.00258942
508.152	0.0959167	-0.00216095
510.715	0.0445831	-0.0018457
513.279	-0.00668335	-0.00157593
515.842	-0.0577393	-0.00136932
518.405	-0.109222	-0.00122498
520.969	-0.159607	-0.00112762
523.532	-0.138519	-0.000954895
526.096	-0.0863342	-0.000789185
528.659	-0.0356964	-0.000619812
531.223	0.0152771	-0.000423584
533.786	0.0667114	-0.000184387
536.35	0.118225	0.00011441
538.913	0.169098	0.000495605
541.477	0.220093	0.00100616
544.04	0.271057	0.00170105
546.604	0.322479	0.00267975
549.167	0.373688	0.00187927
551.731	0.425323	0.0012204
554.294	0.476837	0.000975952
556.858	0.527588	0.000863342
559.421	0.579346	0.000810242
561.984	0.625244	0.000768127
564.548	0.57373	0.000634766
567.111	0.522217	0.000530701
569.675	0.471985	0.00041214
572.238	0.421051	0.000248383
574.802	0.369019	4.3396e-05
577.365	0.31897	-0.000212982
579.929	0.267578	-0.000626831
582.492	0.215698	-0.00135925
585.056	0.165039	-0.00258545
587.619	0.113159	-0.00229462
590.183	0.0624695	-0.00192993
592.746	0.0103027	-0.00164185
595.31	-0.0408813	-0.00141235
597.873	-0.0921936	-0.00124939
600.437	-0.142303	-0.00113892
603	-0.154724	-0.00100006
605.563	-0.10318	-0.000828247
608.127	-0.0531921	-0.000664368
610.69	-0.000817871	-0.000480499
613.254	0.0503723	-0.000259247
615.817	0.100616	1.63422e-05
618.381	0.151886	0.000363708
620.944	0.202698	0.000824585
623.508	0.25412	0.00143433
626.071	0.305756	0.00241058
628.635	0.356445	0.00235992
631.198	0.40863	0.00136475
633.762	0.45932	0.00104675
636.325	0.511139	0.000899658
638.889	0.561676	0.00083374
641.452	0.613464	0.000798035
644.016	0.590515	0.000682068
646.579	0.540436	0.000574646
649.142	0.489105	0.000464294
651.706	0.436981	0.000317322
654.269	0.385956	0.000124298
656.833	0.334717	-0.000108246
659.396	0.28421	-0.000451355
661.96	0.232727	-0.0010611
664.523	0.182098	-0.00231171
667.087	0.130157	-0.00245514
669.65	0.0796814	-0.00202698
672.214	0.0274902	-0.00171631
674.777	-0.0238037	-0.00146606
677.341	-0.0750732	-0.00128235
679.904	-0.125916	-0.00115692
682.468	-0.172638	-0.00105957
685.031	-0.12027	-0.000870972
687.595	-0.0690918	-0.000709229
690.158	-0.0187469	-0.000535278
692.721	0.0325439	-0.000329498
695.285	0.0841064	-7.53479e-05
697.848	0.134766	0.000243622
700.412	0.186035	0.000658875
702.975	0.237396	0.00121246
705.539	0.288086	0.00204041
708.102	0.339783	0.00270569
710.666	0.39035	0.00157532
713.229	0.442627	0.0011319
715.793	0.494019	0.000941772
718.356	0.544098	0.000856934
720.92	0.595734	0.000814819
723.483	0.60788	0.000730896
726.047	0.556671	0.00061615
728.61	0.505829	0.000510254
731.173	0.454102	0.000378845
733.737	0.403015	0.000199585
736.3	0.352783	-1.67358e-05
738.864	0.30188	-0.000308014
741.427	0.250153	-0.000811768
743.991	0.198547	-0.00178253
746.554	0.147339	-0.00258972
749.118	0.0968018	-0.00214386
751.681	0.0446838	-0.0017984
754.245	-0.0063385	-0.00152802
756.808	-0.0571899	-0.00132416
759.372	-0.108459	-0.00118195
761.935	-0.1604	-0.00108704
764.499	-0.138336	-0.000917053
767.062	-0.0865479	-0.000753784
769.626	-0.0351746	-0.000587158
772.189	0.0163239	-0.000394409
774.752	0.0671387	-0.000159698
777.316	0.117371	0.000134003
779.879	0.168579	0.000509644
782.443	0.219879	0.00101471
785.006	0.270905	0.0017038
787.57	0.322418	0.00268799
790.133	0.374237	0.00191589
792.697	0.425079	0.00123779
795.26	0.47641	0.000994568
797.824	0.5271	0.000883179
800.387	0.579193	0.000831909
802.951	0.625	0.000791931
805.514	0.573761	0.000657349
808.078	0.522827	0.000551758
810.641	0.471924	0.000433075
813.205	0.420044	0.00027002
815.768	0.368927	6.61011e-05
818.331	0.31778	-0.000189178
818.82	0.308167	-0.00025116

File: good_data_voltammetry.txt
Potential applied (V);Time (s);WE(1).Current (A);WE(1).Potential (V);Scan;Index;Q+;Q-
0,25360107421875;937,06437263414;9,41009521484375E-06;0,25030517578125;1;1;0,112389933876693;-0,0832733988761901
0,52215576171875;950,492072600238;0,000496307373046875;0,521728515625;1;111;0,112389933876693;-0,0832733988761901
0,79071044921875;963,919772566337;0,000997314453125;0,79071044921875;1;221;0,112389933876693;-0,0832733988761901
1,05926513671875;977,347472532435;0,004149169921875;1,0589599609375;1;331;0,112389933876693;-0,0832733988761901
1,12762451171875;990,775172498533;0,00215789794921875;1,126708984375;1;441;0,112389933876693;-0,0832733988761901
0,85906982421875;1004,20287246463;-0,0016790771484375;0,85906982421875;1;551;0,112389933876693;-0,0832733988761901
0,59051513671875;1017,63057243073;-0,000286041259765625;0,58966064453125;1;661;0,112389933876693;-0,0832733988761901
0,32196044921875;1031,05827239683;-0,00067840576171875;0,321502685546875;1;771;0,112389933876693;-0,0832733988761901
0,05340576171875;1044,48597236293;-0,00233062744140625;0,053955078125;1;881;0,112389933876693;-0,0832733988761901
-0,13702392578125;1057,91367232902;-0,00140289306640625;-0,135955810546875;1;991;0,112389933876693;-0,0832733988761901
0,13153076171875;1071,34137229512;-0,00019927978515625;0,131591796875;1;1101;0,112389933876693;-0,0832733988761901
0,40008544921875;1084,76907226122;0,0010418701171875;0,3994140625;2;1211;0,105122831836343;-0,094011826068163
0,66864013671875;1098,19677222732;0,00054290771484375;0,66790771484375;2;1321;0,105122831836343;-0,094011826068163
0,93719482421875;1111,62447219342;0,0018280029296875;0,93780517578125;2;1431;0,105122831836343;-0,094011826068163
1,20574951171875;1125,05217215952;0,0042205810546875;1,20452880859375;2;1541;0,105122831836343;-0,094011826068163
0,98114013671875;1138,47987212561;-0,000469451904296875;0,9814453125;2;1651;0,105122831836343;-0,094011826068163
0,71258544921875;1151,90757209171;-0,00075439453125;0,711883544921875;2;1761;0,105122831836343;-0,094011826068163
0,44403076171875;1165,33527205781;-0,000380126953125;0,44378662109375;2;1871;0,105122831836343;-0,094011826068163
0,17547607421875;1178,76297202391;-0,00260284423828125;0,17584228515625;2;1981;0,105122831836343;-0,094011826068163
-0,09307861328125;1192,19067199001;-0,00176849365234375;-0,092010498046875;2;2091;0,105122831836343;-0,094011826068163
0,00946044921875;1205,61837195611;-0,0009112548828125;0,00986633300781251;2;2201;0,105122831836343;-0,094011826068163
0,27801513671875;1219,0460719222;0,0015228271484375;0,277374267578125;3;2311;0,0986447416245937;-0,0939183745533228
0,54656982421875;1232,4737718883;0,00054351806640625;0,5455322265625;3;2421;0,0986447416245937;-0,0939183745533228
0,81512451171875;1245,9014718544;0,000823974609375;0,81390380859375;3;2531;0,0986447416245937;-0,0939183745533228
1,08367919921875;1259,3291718205;0,00395965576171875;1,08367919921875;3;2641;0,0986447416245937;-0,0939183745533228
1,10321044921875;1272,7568717866;0,00089141845703125;1,10321044921875;3;2751;0,0986447416245937;-0,0939183745533228
0,83465576171875;1286,1845717527;-0,00210174560546875;0,833740234375;3;2861;0,0986447416245937;-0,0939183745533228
0,56610107421875;1299,61227171879;-0,000455963134765625;0,5662841796875;3;2971;0,0986447416245937;-0,0939183745533228
0,29754638671875;1313,03997168489;-0,00095428466796875;0,29803466796875;3;3081;0,0986447416245937;-0,0939183745533228
0,02899169921875;1326,46767165099;-0,00217742919921875;0,0291595458984375;3;3191;0,0986447416245937;-0,0939183745533228
-0,11260986328125;1339,89537161709;-0,00133575439453125;-0,11181640625;3;3301;0,0986447416245937;-0,0939183745533228
0,15594482421875;1353,32307158319;-6,9366455078125E-05;0,155517578125;3;3411;0,0986447416245937;-0,0939183745533228
0,42449951171875;1366,75077154929;0,0007763671875;0,42449951171875;4;3521;0,0879381462931634;-0,0554700002074242
0,69305419921875;1380,17847151538;0,000478240966796875;0,6923828125;4;3631;0,0879381462931634;-0,0554700002074242
0,96160888671875;1393,60617148148;0,00212188720703125;0,9619140625;4;3741;0,0879381462931634;-0,0554700002074242
1,22528076171875;1407,03387144758;0,00262420654296875;1,22528076171875;4;3851;0,0879381462931634;-0,0554700002074242
0,95672607421875;1420,46157141368;-0,000371673583984375;0,95703125;4;3961;0,0879381462931634;-0,0554700002074242
0,68817138671875;1433,88927137978;-0,00030316162109375;0,687744140625;4;4071;0,0879381462931634;-0,0554700002074242
0,41961669921875;1447,31697134588;-0,000237518310546875;0,419219970703125;4;4181;0,0879381462931634;-0,0554700002074242
0,15106201171875;1460,74467131197;-0,001494140625;0,151611328125;4;4291;0,0879381462931634;-0,0554700002074242
-0,11749267578125;1474,17237127807;-0,00118255615234375;-0,1173095703125;4;4401;0,0879381462931634;-0,0554700002074242
0,03387451171875;1487,60007124417;-0,0005914306640625;0,03402099609375;4;4511;0,0879381462931634;-0,0554700002074242
0,30242919921875;1501,02777121027;0,00088226318359375;0,30267333984375;5;4621;0,0435631196945906;-0,0371700432151556
0,57098388671875;1514,45547117637;0,000343292236328125;0,57086181640625;5;4731;0,0435631196945906;-0,0371700432151556
0,83953857421875;1527,88317114247;0,000540771484375;0,83984375;5;4841;0,0435631196945906;-0,0371700432151556
1,10809326171875;1541,31087110856;0,00173553466796875;1,10748291015625;5;4951;0,0435631196945906;-0,0371700432151556
1,07879638671875;1554,73857107466;0,00026788330078125;1,077880859375;5;5061;0,0435631196945906;-0,0371700432151556
0,81024169921875;1568,16627104076;-0,000327239990234375;0,80963134765625;5;5171;0,0435631196945906;-0,0371700432151556
0,54168701171875;1581,59397100686;-8,4228515625E-05;0,541961669921875;5;5281;0,0435631196945906;-0,0371700432151556
0,27313232421875;1595,02167097296;-0,00067718505859375;0,273162841796875;5;5391;0,0435631196945906;-0,0371700432151556
0,00457763671875;1608,44937093906;-0,00087554931640625;0,00496826171875001;5;5501;0,0435631196945906;-0,0371700432151556
-0,08819580078125;1621,87707090515;-0,000699462890625;-0,0880126953125;5;5611;0,0435631196945906;-0,0371700432151556
0,18035888671875;1635,30477087125;-0,000118316650390625;0,180145263671875;5;5721;0,0435631196945906;-0,0371700432151556
0,44891357421875;1648,73247083735;0,00032073974609375;0,449066162109375;6;5831;0,0281889382749796;-0,0316347014158964
0,71746826171875;1662,16017080345;0,0002967529296875;0,717254638671875;6;5941;0,0281889382749796;-0,0316347014158964
0,98602294921875;1675,58787076955;0,00069488525390625;0,986328125;6;6051;0,0281889382749796;-0,0316347014158964
1,20086669921875;1689,01557073565;0,00069915771484375;1,20086669921875;6;6161;0,0281889382749796;-0,0316347014158964
0,93231201171875;1702,44327070174;-0,00015667724609375;0,931396484375;6;6271;0,0281889382749796;-0,0316347014158964
0,66375732421875;1715,87097066784;-9,5062255859375E-05;0,663848876953125;6;6381;0,0281889382749796;-0,0316347014158964
0,39520263671875;1729,29867063394;-0,000173675537109375;0,395111083984375;6;6491;0,0281889382749796;-0,0316347014158964
0,12664794921875;1742,72637060004;-0,0007415771484375;0,126983642578125;6;6601;0,0281889382749796;-0,0316347014158964
-0,14190673828125;1756,15407056614;-0,00082000732421875;-0,1416015625;6;6711;0,0281889382749796;-0,0316347014158964
0,05828857421875;1769,58177053224;-0,000341278076171875;0,058929443359375;6;6821;0,0281889382749796;-0,0316347014158964
0,32684326171875;1783,00947049833;0,000335174560546875;0,3270263671875;7;6931;0,0255501255393028;-0,0276088751852512
0,59539794921875;1796,43717046443;0,000276611328125;0,594573974609375;7;7041;0,0255501255393028;-0,0276088751852512
0,86395263671875;1809,86487043053;0,0003607177734375;0,863037109375;7;7151;0,0255501255393028;-0,0276088751852512
1,13250732421875;1823,29257039663;0,00081268310546875;1,13128662109375;7;7261;0,0255501255393028;-0,0276088751852512
1,05438232421875;1836,72027036273;0,0001854248046875;1,05438232421875;7;7371;0,0255501255393028;-0,0276088751852512
0,78582763671875;1850,14797032883;-0,000215240478515625;0,7855224609375;7;7481;0,0255501255393028;-0,0276088751852512
0,51727294921875;1863,57567029492;-4,60205078125E-05;0,517547607421875;7;7591;0,0255501255393028;-0,0276088751852512
0,24871826171875;1877,00337026102;-0,000472320556640625;0,24822998046875;7;7701;0,0255501255393028;-0,0276088751852512
-0,01983642578125;1890,43107022712;-0,0007000732421875;-0,0193939208984375;7;7811;0,0255501255393028;-0,0276088751852512
-0,06378173828125;1903,85877019322;-0,00051239013671875;-0,064056396484375;7;7921;0,0255501255393028;-0,0276088751852512
0,20477294921875;1917,28647015932;-2,63519287109375E-05;0,204833984375;7;8031;0,0255501255393028;-0,0276088751852512
0,47332763671875;1930,71417012542;0,00027789306640625;0,473297119140625;8;8141;0,0241653323173523;-0,0249507743865252
0,74188232421875;1944,14187009151;0,000290802001953125;0,7408447265625;8;8251;0,0241653323173523;-0,0249507743865252
1,01043701171875;1957,56957005761;0,00058685302734375;1,01043701171875;8;8361;0,0241653323173523;-0,0249507743865252
1,17645263671875;1970,99727002371;0,00053375244140625;1,1767578125;8;8471;0,0241653323173523;-0,0249507743865252
0,90789794921875;1984,42496998981;-0,000169403076171875;0,90728759765625;8;8581;0,0241653323173523;-0,0249507743865252
0,63934326171875;1997,85266995591;-6,0577392578125E-05;0,63934326171875;8;8691;0,0241653323173523;-0,0249507743865252
0,37078857421875;2011,28036992201;-0,000154296875;0,370941162109375;8;8801;0,0241653323173523;-0,0249507743865252
0,10223388671875;2024,7080698881;-0,0005743408203125;0,102081298828125;8;8911;0,0241653323173523;-0,0249507743865252
-0,16632080078125;2038,1357698542;-0,00071380615234375;-0,16546630859375;8;9021;0,0241653323173523;-0,0249507743865252
0,08270263671875;2051,5634698203;-0,000238372802734375;0,0823974609375;8;9131;0,0241653323173523;-0,0249507743865252
0,35125732421875;2064,9911697864;0,000281646728515625;0,3507080078125;9;9241;0,00989346951246262;0
0,61981201171875;2078,4188697525;0,00025469970703125;0,618896484375;9;9351;0,00989346951246262;0
0,88836669921875;2091,8465697186;0,00034271240234375;0,887451171875;9;9461;0,00989346951246262;0
0,94696044921875;2094,7762497112;0,00042193603515625;0,94635009765625;9;9485;0,00989346951246262;0

File: OCP_1
Time (s)	WE(1).Potential (V)
4.60529	0.433685
4.80529	0.433868
5.00529	0.434052
5.20529	0.434235
5.40529	0.434418
5.60529	0.434601
5.80529	0.434784
6.00529	0.434967
6.20529	0.435181
6.40529	0.435364
6.60529	0.435547
6.80529	0.43573
7.00529	0.435913
7.20529	0.436127
7.40529	0.43631
7.60529	0.436493
7.80529	0.436676
8.00529	0.43689
8.20529	0.437073
8.40529	0.437256
8.60529	0.437469
8.80529	0.437653
9.00529	0.437836
9.20529	0.438049
9.40529	0.438232
9.60529	0.438416
9.80529	0.438629
10.0053	0.438812
10.2053	0.438995
10.4053	0.439209
10.6053	0.439392
10.8053	0.439606
11.0053	0.439789
11.2053	0.439972
11.4053	0.440186
11.6053	0.440369
11.8053	0.440582
12.0053	0.440765
12.2053	0.440979
12.4053	0.441162
12.6053	0.441345
12.8053	0.441559
13.0053	0.441742
13.2053	0.441956
13.4053	0.442139
13.6053	0.442322
13.8053	0.442535
14.0053	0.442719
14.2053	0.442932
14.4053	0.443115
14.6053	0.443298
14.8053	0.443512
15.0053	0.443695
15.2053	0.443909
15.4053	0.444092
15.6053	0.444275
15.8053	0.444489
16.0053	0.444672
16.2053	0.444855
16.4053	0.445068
16.6053	0.445251
16.8053	0.445435
17.0053	0.445618
17.2053	0.445831
17.4053	0.446014
17.6053	0.446198
17.8053	0.446381
18.0053	0.446594
18.2053	0.446777
18.4053	0.44696
18.6053	0.447144
18.8053	0.447327
19.0053	0.44754
19.2053	0.447723
19.4053	0.447906
19.6053	0.44809
19.8053	0.448273
20.0053	0.448456
20.2053	0.448639
20.4053	0.448822
20.6053	0.449005
20.8053	0.449188
21.0053	0.449371
21.2053	0.449554
21.4053	0.449738
21.6053	0.449921
21.8053	0.450104
22.0053	0.450287
22.2053	0.45047
22.4053	0.450653
22.6053	0.450836
22.8053	0.451019
23.0053	0.451172
23.2053	0.451355
23.4053	0.451538
23.6053	0.451721
23.8053	0.451904
24.0053	0.452057
24.2053	0.45224
24.4053	0.452423
24.6053	0.452576
24.8053	0.452759
25.0053	0.452942
25.2053	0.453094
25.4053	0.453278
25.6053	0.45343
25.8053	0.453613
26.0053	0.453796
26.2053	0.453949
26.4053	0.454102
26.6053	0.454285
26.8053	0.454437
27.0053	0.45462
27.2053	0.454773
27.4053	0.454956
27.6053	0.455109
27.8053	0.455261
28.0053	0.455444
28.2053	0.455597
28.4053	0.45575
28.6053	0.455902
28.8053	0.456085
29.0053	0.456238
29.2053	0.45639
29.4053	0.456543
29.6053	0.456696
29.8053	0.456848
30.0053	0.457031
30.2053	0.457184
30.4053	0.457336
30.6053	0.457489
30.8053	0.457642
31.0053	0.457794
31.2053	0.457947
31.4053	0.458099
31.6053	0.458221
31.8053	0.458374
32.0053	0.458527
32.2053	0.458679
32.4053	0.458832
32.6053	0.458984
32.8053	0.459137
33.0053	0.459259
33.2053	0.459412
33.4053	0.459564
33.6053	0.459717
33.8053	0.459839
34.0053	0.459991
34.2053	0.460144
34.4053	0.460266
34.6053	0.460419
34.8053	0.460541
35.0053	0.460693
35.2053	0.460815
35.4053	0.460968
35.6053	0.46109
35.8053	0.461243
36.0053	0.461365
36.2053	0.461517
36.4053	0.461639
36.6053	0.461761
36.8053	0.461914
37.0053	0.462036
37.2053	0.462189
37.4053	0.462311
37.6053	0.462433
37.8053	0.462555
38.0053	0.462708
38.2053	0.46283
38.4053	0.462952
38.6053	0.463074
38.8053	0.463196
39.0053	0.463348
39.2053	0.46347
39.4053	0.463593
39.6053	0.463715
39.8053	0.463837
40.0053	0.463959
40.2053	0.464081
40.4053	0.464203
40.6053	0.464325
40.8053	0.464447
41.0053	0.464569
41.2053	0.464691
41.4053	0.464813
41.6053	0.464935
41.8053	0.465057
42.0053	0.465179
42.2053	0.465302
42.4053	0.465393
42.6053	0.465515
42.8053	0.465637
43.0053	0.465759
43.2053	0.465851
43.4053	0.465973
43.6053	0.466095
43.8053	0.466217
44.0053	0.466309
44.2053	0.466431
44.4053	0.466553
44.6053	0.466644
44.8053	0.466766
45.0053	0.466858
45.2053	0.46698
45.4053	0.467072
45.6053	0.467194
45.8053	0.467316
46.0053	0.467407
46.2053	0.467529
46.4053	0.467621
46.6053	0.467712
46.8053	0.467834
47.0053	0.467926
47.2053	0.468048
47.4053	0.46814
47.6053	0.468231
47.8053	0.468353
48.0053	0.468445
48.2053	0.468536
48.4053	0.468658
48.6053	0.46875
48.8053	0.468842
49.0053	0.468933
49.2053	0.469055
49.4053	0.469147
49.6053	0.469238
49.8053	0.46933
50.0053	0.469421
50.2053	0.469513
50.4053	0.469635
50.6053	0.469727
50.8053	0.469818
51.0053	0.46991
51.2053	0.470001
51.4053	0.470093
51.6053	0.470184
51.8053	0.470276
52.0053	0.470367
52.2053	0.470459
52.4053	0.470551
52.6053	0.470642
52.8053	0.470734
53.0053	0.470825
53.2053	0.470917
53.4053	0.471008
53.6053	0.471069
53.8053	0.471161
54.0053	0.471252
54.2053	0.471344
54.4053	0.471436
54.6053	0.471527
54.8053	0.471588
55.0053	0.47168
55.2053	0.471771
55.4053	0.471863
55.6053	0.471954
55.8053	0.472015
56.0053	0.472107
56.2053	0.472198
56.4053	0.47226
56.6053	0.472351
56.8053	0.472443
57.0053	0.472504
57.2053	0.472595
57.4053	0.472687
57.6053	0.472748
57.8053	0.472839
58.0053	0.472931
58.2053	0.472992
58.4053	0.473083
58.6053	0.473145
58.8053	0.473236
59.0053	0.473297
59.2053	0.473389
59.4053	0.47345
59.6053	0.473541
59.8053	0.473602
60.0053	0.473694
60.2053	0.473755
60.4053	0.473846
60.6053	0.473907
60.8053	0.473999
61.0053	0.47406
61.2053	0.474121
61.4053	0.474213
61.6053	0.474274
61.8053	0.474365
62.0053	0.474426
62.2053	0.474487
62.4053	0.474579
62.6053	0.47464
62.8053	0.474701
63.0053	0.474792
63.2053	0.474854
63.4053	0.474915
63.6053	0.474976
63.8053	0.475067
64.0053	0.475128
64.2053	0.475189
64.4053	0.47525
64.5053	0.475311