Folder: electrochromicfilms/Edgar/20230626/20230626/electrodeposition_prussian_blue/voltametry_sample_D (part 2)

File: OCP_3
Time (s)	WE(1).Potential (V)
818.931	0.313873
819.331	0.312164
819.731	0.310181
820.131	0.308197
820.531	0.306305
820.931	0.304474
821.331	0.302704
821.731	0.301056
822.131	0.299469
822.531	0.297943
822.931	0.296509
823.331	0.295166
823.731	0.293854
824.131	0.292633
824.531	0.291443
824.931	0.290314
825.331	0.289246
825.731	0.288208
826.131	0.287231
826.531	0.286285
826.931	0.28537
827.331	0.284515
827.731	0.283691
828.131	0.282898
828.531	0.282104
828.931	0.281372
829.331	0.28067
829.731	0.279968
830.131	0.279297
830.531	0.278656
830.931	0.278046
831.331	0.277435
831.731	0.276855
832.131	0.276306
832.531	0.275757
832.931	0.275238
833.331	0.274719
833.731	0.274231
834.131	0.273773
834.531	0.273315
834.931	0.272858
835.331	0.27243
835.731	0.272003
836.131	0.271576
836.531	0.271179
836.931	0.270782
837.331	0.270416
837.731	0.27005
838.131	0.269684
838.531	0.269318
838.931	0.268982
839.331	0.268646
839.731	0.268311
840.131	0.268005
840.531	0.2677
840.931	0.267395
841.331	0.26709
841.731	0.266815
842.131	0.266541
842.531	0.266266
842.931	0.265991
843.331	0.265747
843.731	0.265472
844.131	0.265228
844.531	0.264984
844.931	0.26474
845.331	0.264496
845.731	0.264282
846.131	0.264069
846.531	0.263824
846.931	0.263611
847.331	0.263428
847.731	0.263214
848.131	0.263
848.531	0.262817
848.931	0.262604
849.331	0.262421
849.731	0.262238
850.131	0.262054
850.531	0.261871
850.931	0.261688
851.331	0.261536
851.731	0.261353
852.131	0.2612
852.531	0.261017
852.931	0.260864
853.331	0.260712
853.731	0.260559
854.131	0.260406
854.531	0.260254
854.931	0.260132
855.331	0.259979
855.731	0.259827
856.131	0.259705
856.531	0.259552
856.931	0.25943
857.331	0.259308
857.731	0.259186
858.131	0.259033
858.531	0.258911
858.931	0.258789
859.331	0.258698
859.731	0.258575
860.131	0.258453
860.531	0.258331
860.931	0.25824
861.331	0.258118
861.731	0.257996
862.131	0.257904
862.531	0.2578125
862.931	0.25769
863.331	0.257599
863.731	0.257507
864.131	0.257385
864.531	0.257294
864.931	0.257202
865.331	0.257111
865.731	0.257019
866.131	0.256927
866.531	0.256836
866.931	0.256744
867.331	0.256653
867.731	0.256592
868.131	0.2565
868.531	0.256409
868.931	0.256348
869.331	0.256256
869.731	0.256165
870.131	0.256104
870.531	0.256012
870.931	0.255951
871.331	0.255859
871.731	0.255798
872.131	0.255737
872.531	0.255646
872.931	0.255585
873.331	0.255524
873.731	0.255432
874.131	0.255371
874.531	0.25531
874.931	0.255249
875.331	0.255188
875.731	0.255127
876.131	0.255066
876.531	0.255005
876.931	0.254944
877.331	0.254883
877.731	0.254822
878.131	0.254761
878.531	0.2547
878.931	0.254639
879.331	0.254578
879.731	0.254517
880.131	0.254486
880.531	0.254425
880.931	0.254364
881.331	0.254303
881.731	0.254272
882.131	0.254211
882.531	0.25415
882.931	0.25412
883.331	0.254059
883.731	0.254028
884.131	0.253967
884.531	0.253906
884.931	0.253876
885.331	0.253815
885.731	0.253784
886.131	0.253754
886.531	0.253693
886.931	0.253662
887.331	0.253601
887.731	0.253571
888.131	0.25351
888.531	0.253479
888.931	0.253448
889.331	0.253387
889.731	0.253357
890.131	0.253326
890.531	0.253296
890.931	0.253235
891.331	0.253204
891.731	0.253174
892.131	0.253143
892.531	0.253113
892.931	0.253052
893.331	0.253021
893.731	0.252991
894.131	0.25296
894.531	0.25293
894.931	0.252899
895.331	0.252869
895.731	0.252838
896.131	0.252777
896.531	0.252747
896.931	0.252716
897.331	0.252686
897.731	0.252655
898.131	0.252625
898.531	0.252594
898.931	0.252563
899.331	0.252563
899.731	0.252502
900.131	0.252502
900.531	0.252472
900.931	0.252441
901.331	0.252411
901.731	0.25238
902.131	0.25235
902.531	0.252319
902.931	0.252289
903.331	0.252258
903.731	0.252258
904.131	0.252228
904.531	0.252197
904.931	0.252167
905.331	0.252136
905.731	0.252136
906.131	0.252106
906.531	0.252075
906.931	0.252045
907.331	0.252045
907.731	0.252014
908.131	0.251984
908.531	0.251953
908.931	0.251953
909.331	0.251923
909.731	0.251892
910.131	0.251862
910.531	0.251862
910.931	0.251831
911.331	0.251801
911.731	0.251801
912.131	0.25177
912.531	0.25174
912.931	0.25174
913.331	0.251709
913.731	0.251709
914.131	0.251678
914.531	0.251648
914.931	0.251648
915.331	0.251617
915.731	0.251617
916.131	0.251587
916.531	0.251587
916.931	0.251556
917.331	0.251526
917.731	0.251526
918.131	0.251495
918.531	0.251495
918.931	0.251465
919.331	0.251465
919.731	0.251434
920.131	0.251434
920.531	0.251404
920.931	0.251404
921.331	0.251373
921.731	0.251373
922.131	0.251343
922.531	0.251343
922.931	0.251312
923.331	0.251312
923.731	0.251312
924.131	0.251282