Folder: electrochromicfilms/Edgar/20240424/20240424/chronoamperommetry_steps/A

File: OCP_1
Time (s)	WE(1).Potential (V)
1.99877	-0.000912476
2.99877	-0.000823975
3.99877	-0.000741577
4.99877	-0.000646973
5.99877	-0.000564575
6.99877	-0.000473022
7.99877	-0.000390625
8.99877	-0.000292969
9.99877	-0.000216675
10.9988	-0.00012207
11.9988	-4.27246e-05
12.9988	4.88281e-05
13.9988	0.000140381
14.9988	0.000231934
15.9988	0.000326538
16.9988	0.000418091
17.9988	0.000518799
18.9988	0.0006073
19.9988	0.000692749
20.9988	0.000787354
21.9988	0.000872803
22.9988	0.000964355
23.9988	0.00105896
24.9988	0.00113831
25.9988	0.00123901
26.9988	0.00133972
27.9988	0.00142212
28.9988	0.00151062
29.9988	0.00161133
30.9988	0.00169067
31.9988	0.00178833
32.9988	0.00187378
33.9988	0.00198059
34.9988	0.00206299
35.9988	0.00215454
36.9988	0.00223694
37.9988	0.00233154
38.9988	0.00242004
39.9988	0.00250854
40.9988	0.00258484
41.9988	0.00267029
42.9988	0.00276184
43.9988	0.00284729
44.9988	0.00293579
45.9988	0.00301514
46.9988	0.00308533
47.9988	0.00319214
48.9988	0.00327148
49.9988	0.00337219
50.9988	0.0034668
51.9988	0.00355225
52.9988	0.0036438
53.9988	0.0037323
54.9988	0.00382385
55.9988	0.00392151
56.9988	0.00400085
57.9988	0.00410156
58.9988	0.00418396
59.9988	0.00427246
60.9988	0.00436707

File: OCP_3
Time (s)	WE(1).Potential (V)
680.748	0.570984
681.748	0.302032
682.748	0.191101
683.748	0.170319
684.748	0.159332
685.748	0.15152
686.748	0.145203
687.748	0.139862
688.748	0.135193
689.748	0.130981
690.748	0.127136
691.748	0.123596
692.748	0.12027
693.748	0.1171875
694.748	0.114258
695.748	0.111511
696.748	0.108856
697.748	0.106354
698.748	0.103943
699.748	0.101654
700.748	0.0994568
701.748	0.09729
702.748	0.0952454
703.748	0.0932617
704.748	0.0913391
705.748	0.0894775
706.748	0.087677
707.748	0.0859375
708.748	0.0842285
709.748	0.0825806
710.748	0.0809631
711.748	0.0794067
712.748	0.0778809
713.748	0.0763855
714.748	0.0749207
715.748	0.0734863
716.748	0.072113
717.748	0.0707397
718.748	0.0694275
719.748	0.0681152
720.748	0.0668335
721.748	0.0655823
722.748	0.0643616
723.748	0.0631714
724.748	0.0619507
725.748	0.060791
726.748	0.0596619
727.748	0.0585327
728.748	0.0574341
729.748	0.056366
730.748	0.0552979
731.748	0.0542603
732.748	0.0532532
733.748	0.0522461
734.748	0.051239
735.748	0.050293
736.748	0.0493469
737.748	0.0483673
738.748	0.0474457
739.748	0.0465393
740.748	0.0456665
741.748	0.0447754
742.748	0.0439148
743.748	0.0430664
744.748	0.0422363
745.748	0.0414215
746.748	0.0406128
747.748	0.0398224
748.748	0.0390442
749.748	0.0382874
750.748	0.0375214
751.748	0.036795
752.748	0.0360413
753.748	0.0353119
754.748	0.0345947
755.748	0.0338989
756.748	0.0332062
757.748	0.0325256
758.748	0.0318542
759.748	0.0312103
760.748	0.0305389
761.748	0.0299011
762.748	0.0292694
763.748	0.0286499
764.748	0.0280396
765.748	0.0274384
766.748	0.0268463
767.748	0.0262604
768.748	0.0256958
769.748	0.025116
770.748	0.0245575
771.748	0.0240082
772.748	0.0234924
773.748	0.0229309
774.748	0.022406
775.748	0.0218872
776.748	0.0213776
777.748	0.020874
778.748	0.0203766
779.748	0.0198914
780.748	0.0194092
781.748	0.0189362
782.748	0.0184723
783.748	0.0180237
784.748	0.0175568
785.748	0.0171143
786.748	0.0166687
787.748	0.0162384
788.748	0.0158142
789.748	0.0153961
790.748	0.0149841
791.748	0.0145721
792.748	0.0141663
793.748	0.0137726
794.748	0.0133759
795.748	0.0129913
796.748	0.0126129
797.748	0.0122375
798.748	0.0118713
799.748	0.0115082