Folder: electrochromicfilms/Edgar/20240424/20240424/chronoamperommetry_steps/B

File: Chronoamperommetry_steps.txt
Time (s)	WE(1).Potential (V)	WE(1).Current (A)	External(1).External 2 (V)
61.7253	-0.898743	-0.00253204	3.15002
63.9853	-0.898132	-0.00120361	2.54425
66.2453	-0.899353	-0.000965881	2.07245
68.5053	-0.898743	-0.000821533	1.73889
70.7653	-0.8984375	-0.00071991	1.50421
73.0253	-0.8984375	-0.000644226	1.34674
75.2853	-0.897827	-0.000584717	1.2442
77.5453	-0.897522	-0.000539246	1.14624
79.8053	-0.897827	-0.000503235	1.08765
82.0653	-0.898743	-0.000472931	1.04828
84.3253	-0.899048	-0.0004487	0.969238
86.5853	-0.897827	-0.00042807	0.950928
88.8453	-0.898132	-0.000410553	0.91095
91.1053	-0.899353	-0.000394806	0.892029
93.3653	-0.898132	-0.000380585	0.872192
95.6253	-0.8984375	-0.000369141	0.853271
97.8853	-0.899353	-0.000358002	0.839233
100.145	-0.897827	-0.000348602	0.814209
102.405	-0.897522	-0.000340515	0.813599
104.665	-0.897522	-0.000331696	0.812988
106.925	-0.897522	-0.000324554	0.793152
109.185	-0.8984375	-0.000317749	0.773926
111.445	-0.899048	-0.000311371	0.773621
113.705	-0.899353	-0.000305756	0.774231
115.965	-0.899353	-0.000300385	0.755005
118.225	-0.899048	-0.000296173	0.755005
120.485	-0.898743	-0.000290558	0.75531
122.755	1.00159	0.0039801	0.832214
125.015	1.00006	0.00305908	1.10626
127.275	1.00006	0.002211	1.64001
129.535	0.999756	0.00139893	2.9718
131.795	1.00189	0.000163727	3.08899
134.055	1.00067	6.35071e-05	3.12897
136.315	0.999756	4.1687e-05	3.12653
138.575	1.00067	2.99683e-05	3.14728
140.835	1.00128	2.35596e-05	3.12866
143.095	1.00189	1.82495e-05	3.14758
145.355	0.999756	1.6449e-05	3.14728
147.615	0.999756	1.3855e-05	3.14606
149.875	1.00006	1.18408e-05	3.12805
152.135	1.00006	1.01013e-05	3.14789
154.395	1.00006	9.06372e-06	3.12866
156.655	1.00128	8.36182e-06	3.16772
158.915	1.00098	7.8125e-06	3.12805
161.175	1.00067	7.08008e-06	3.14697
163.435	1.00189	6.34766e-06	3.14758
165.695	1.00067	6.073e-06	3.12866
167.955	1.00128	5.64575e-06	3.14758
170.215	0.999756	5.31006e-06	3.12866
172.475	1.00189	4.42505e-06	3.14758
174.735	1.00067	4.5166e-06	3.14728
176.995	1.00159	4.5166e-06	3.14819
179.255	1.0022	4.08936e-06	3.14758
181.515	1.0022	4.08936e-06	3.14697
183.785	-0.897827	-0.0012616	2.60193
186.045	-0.899048	-0.00100464	2.11121
188.305	-0.898743	-0.00085144	1.77765
190.565	-0.898132	-0.000744629	1.52344
192.825	-0.897827	-0.000663452	1.34552
195.085	-0.897827	-0.000599976	1.2439
197.345	-0.897217	-0.000551147	1.14563
199.605	-0.898743	-0.000510864	1.08704
201.865	-0.898132	-0.000480408	1.02783
204.125	-0.897217	-0.00045282	0.970764
206.385	-0.899658	-0.000430847	0.950317
208.645	-0.899353	-0.000410492	0.910645
210.905	-0.899048	-0.000394348	0.871887
213.165	-0.899048	-0.000379639	0.852966
215.425	-0.897827	-0.000366486	0.83374
217.685	-0.899048	-0.000355103	0.833435
219.945	-0.897827	-0.000344818	0.814209
222.205	-0.899353	-0.000334808	0.792542
224.465	-0.898132	-0.000327362	0.794373
226.725	-0.899353	-0.000318695	0.793152
228.985	-0.8984375	-0.000312164	0.774841
231.245	-0.897827	-0.000305878	0.774536
233.505	-0.899048	-0.000299469	0.75531
235.765	-0.897522	-0.000293701	0.754089
238.025	-0.897827	-0.00028949	0.7547
240.285	-0.899048	-0.000283966	0.734222
242.555	1.00159	0.0040744	0.812988
244.815	0.999451	0.00317139	1.06628
247.075	1.00128	0.00236328	1.52222
249.335	1.00189	0.00155853	2.73834
251.595	0.999756	0.000426147	3.10822
253.855	1.00006	7.69043e-05	3.10913
256.115	1.00098	4.8584e-05	3.10944
258.375	1.00189	3.5675e-05	3.12866
260.635	1.00128	2.79846e-05	3.10883
262.895	0.999451	2.27966e-05	3.14636
265.155	1.00006	1.93176e-05	3.12744
267.415	1.00037	1.62048e-05	3.12805
269.675	1.00067	1.41907e-05	3.12744
271.935	1.00006	1.28174e-05	3.14728
274.195	1.00098	1.11084e-05	3.12836
276.455	1.00037	1.01013e-05	3.12805
278.715	0.999756	9.24683e-06	3.12744
280.975	1.00159	8.66699e-06	3.12714
283.235	1.00006	8.27026e-06	3.12897
285.495	1.00189	7.35474e-06	3.12714
287.755	0.999451	7.20215e-06	3.14697
290.015	1.00189	6.40869e-06	3.14819
292.275	1.00037	5.7373e-06	3.14819
294.535	1.00128	5.95093e-06	3.12714
296.795	1.00006	5.27954e-06	3.12805
299.055	0.999756	4.82178e-06	3.14819
301.315	1.00037	5.24902e-06	3.1073
303.585	-0.897217	-0.00130798	2.62268
305.845	-0.898743	-0.00103058	2.12952
308.105	-0.897522	-0.000871277	1.77917
310.365	-0.898743	-0.000759277	1.52374
312.625	-0.898743	-0.000675049	1.36597
314.885	-0.8984375	-0.000610657	1.22437
317.145	-0.898743	-0.000559387	1.14655
319.405	-0.897522	-0.000519104	1.0675
321.665	-0.897217	-0.000485535	1.02905
323.925	-0.899048	-0.000457336	0.969543
326.185	-0.899048	-0.000434448	0.931091
328.445	-0.898743	-0.00041333	0.892029
330.705	-0.899048	-0.000396515	0.872192
332.965	-0.899353	-0.000380981	0.853271
335.225	-0.899353	-0.000367584	0.833435
337.485	-0.897827	-0.000355286	0.814514
339.745	-0.897522	-0.000344604	0.814209
342.005	-0.899353	-0.000335571	0.793457
344.265	-0.899048	-0.000325592	0.793152
346.525	-0.896912	-0.000318176	0.774231
348.785	-0.897522	-0.000311005	0.774536
351.045	-0.899048	-0.000304169	0.7547
353.305	-0.8984375	-0.000298309	0.7547
355.565	-0.8984375	-0.000291473	0.734375
357.825	-0.898743	-0.000286987	0.735046
360.085	-0.897522	-0.000282227	0.735321
362.355	1.00067	0.00419403	0.77301
364.615	1.0022	0.00325012	1.02661
366.875	1.00006	0.00246155	1.44409
369.135	1.00159	0.00165833	2.49969
371.395	1.00189	0.000732727	3.08899
373.655	1.00098	8.55713e-05	3.08838
375.915	1.00159	5.25208e-05	3.08929
378.175	1.0022	3.8208e-05	3.12775
380.435	1.00098	2.96631e-05	3.12775
382.695	1.00006	2.41699e-05	3.08746
384.955	1.00006	2.07214e-05	3.10883
387.215	1.00159	1.74255e-05	3.08838
389.475	1.00067	1.57471e-05	3.08746
391.735	1.00189	1.37024e-05	3.12744
393.995	1.00067	1.24817e-05	3.12805
396.255	0.999756	1.08948e-05	3.10883
398.515	1.00098	9.97925e-06	3.12805
400.775	1.00189	9.06372e-06	3.10883
403.035	1.00189	8.48389e-06	3.14667
405.295	1.00067	7.69043e-06	3.10913
407.555	1.00098	7.23267e-06	3.12805
409.815	1.00159	6.43921e-06	3.12805
412.075	1.00128	6.68335e-06	3.12714
414.335	1.00098	6.31714e-06	3.12866
416.595	1.00037	5.43213e-06	3.10852
418.855	1.00159	5.61523e-06	3.12744
421.115	0.999756	4.69971e-06	3.12775
423.385	-0.897522	-0.0013562	2.68127
425.645	-0.897827	-0.00105469	2.14905
427.905	-0.897522	-0.000888062	1.77826
430.165	-0.899048	-0.000772705	1.52313
432.425	-0.897217	-0.00068573	1.34735
434.685	-0.898743	-0.000618896	1.22345
436.945	-0.899048	-0.000566101	1.1264
439.205	-0.898132	-0.000523682	1.04797
441.465	-0.898743	-0.000490234	0.989075
443.725	-0.897827	-0.000462036	0.970154
445.985	-0.899048	-0.000437561	0.929871
448.245	-0.898132	-0.000417145	0.891113
450.505	-0.896912	-0.000399292	0.871582
452.765	-0.899353	-0.000382996	0.852661
455.025	-0.897522	-0.0003703	0.833435
457.285	-0.898743	-0.00035675	0.814209
459.545	-0.899353	-0.000346619	0.793762
461.805	-0.898743	-0.00033551	0.772705
464.065	-0.897217	-0.000327271	0.774231
466.325	-0.899048	-0.00031842	0.752869
468.585	-0.899353	-0.000311371	0.753784
470.845	-0.8984375	-0.000304962	0.7547
473.105	-0.898132	-0.000297668	0.733856
475.365	-0.897827	-0.000292755	0.734894
477.625	-0.899048	-0.000287231	0.734924
479.885	-0.899048	-0.00028241	0.734863
482.155	1.00067	0.00434906	0.754089
484.415	1.00067	0.00333038	0.988159
486.675	1.00067	0.00254517	1.38489
488.935	1.00098	0.00173615	2.40204
491.195	1.00128	0.000861511	3.06824
493.455	1.00189	9.17664e-05	3.06976
495.715	1.00128	5.55725e-05	3.08807
497.975	1.00037	3.94897e-05	3.08899
500.235	1.00037	3.05786e-05	3.12775
502.495	1.00098	2.50549e-05	3.10791
504.755	1.00037	2.05383e-05	3.12775
507.015	0.999756	1.81274e-05	3.1073
509.275	1.00006	1.58081e-05	3.10791
511.535	1.00159	1.37634e-05	3.10852
513.795	1.00098	1.26648e-05	3.10822
516.055	1.00037	1.09253e-05	3.12714
518.315	1.00067	1.05896e-05	3.10883
520.575	1.00098	9.61304e-06	3.1076
522.835	1.00159	8.78906e-06	3.10852
525.095	1.00006	8.42285e-06	3.12683
527.355	1.00128	7.14111e-06	3.10822
529.615	1.00159	7.41577e-06	3.10699
531.875	1.00128	6.43921e-06	3.10852
534.135	1.00006	6.53076e-06	3.10791
536.395	1.00067	6.01196e-06	3.12805
538.655	1.00128	5.67627e-06	3.10913
540.915	1.00128	5.43213e-06	3.10852
543.185	-0.899353	-0.00140839	2.72034
545.445	-0.897522	-0.0010791	2.18842
547.705	-0.898132	-0.000904236	1.79779
549.965	-0.897522	-0.000784912	1.50238
552.225	-0.896912	-0.000695496	1.34521
554.485	-0.897522	-0.000626526	1.22345
556.745	-0.899048	-0.000572815	1.12549
559.005	-0.897827	-0.00052948	1.0672
561.265	-0.899048	-0.000495422	0.989685
563.525	-0.897522	-0.000465851	0.950012
565.785	-0.8984375	-0.000441498	0.91095
568.045	-0.899658	-0.000419891	0.891113
570.305	-0.899353	-0.000402069	0.871887
572.565	-0.897827	-0.000385376	0.852966
574.825	-0.898743	-0.000372467	0.832825
577.085	-0.899658	-0.000358734	0.813599
579.345	-0.898743	-0.000348083	0.793762
581.605	-0.897522	-0.000337524	0.793457
583.865	-0.899048	-0.000328613	0.774536
586.125	-0.899048	-0.000319794	0.77301
588.385	-0.899353	-0.000312134	0.753784
590.645	-0.898132	-0.000305695	0.754395
592.905	-0.899353	-0.000298462	0.734802
595.165	-0.898743	-0.000292877	0.733673
597.425	-0.898743	-0.000287445	0.734863
599.685	-0.897522	-0.000282562	0.734802
601.955	1.00037	0.00452484	0.733673
604.215	1.00006	0.00340393	0.969238
606.475	1.00037	0.00262146	1.34491
608.735	0.999756	0.00180908	2.24548
610.995	1.00098	0.000961914	3.06854
613.255	1.00159	9.78394e-05	3.08899
615.515	1.00067	5.70679e-05	3.08868
617.775	1.00006	4.04663e-05	3.08868
620.035	1.00128	3.06702e-05	3.0896
622.295	1.00067	2.61841e-05	3.1076
624.555	1.00037	2.09961e-05	3.06976
626.815	1.00037	1.8158e-05	3.08868
629.075	1.00189	1.59607e-05	3.10852
631.335	1.00128	1.38855e-05	3.08929
633.595	1.00098	1.24207e-05	3.08899
635.855	1.00159	1.09253e-05	3.10913
638.115	1.00037	1.01624e-05	3.10822
640.375	1.00189	9.27734e-06	3.10791
642.635	1.00037	9.12476e-06	3.10791
644.895	1.00006	7.78198e-06	3.08807
647.155	1.00159	7.41577e-06	3.08899
649.415	1.00159	7.20215e-06	3.12622
651.675	1.00189	6.92749e-06	3.12805
653.935	1.00128	6.28662e-06	3.10852
656.195	1.00037	5.85937e-06	3.08929
658.455	1.00006	5.61523e-06	3.10822
660.715	1.0022	5.67627e-06	3.08868
661.705	1.00159	5.5542e-06	3.10822

File: OCP_1
Time (s)	WE(1).Potential (V)
1.98776	0.155853
2.98776	0.155853
3.98776	0.155853
4.98776	0.155853
5.98776	0.155823
6.98776	0.155823
7.98776	0.155823
8.98776	0.155823
9.98776	0.155823
10.9878	0.155823
11.9878	0.155823
12.9878	0.155823
13.9878	0.155823
14.9878	0.155792
15.9878	0.155823
16.9878	0.155792
17.9878	0.155792
18.9878	0.155792
19.9878	0.155762
20.9878	0.155762
21.9878	0.155762
22.9878	0.155762
23.9878	0.155762
24.9878	0.155762
25.9878	0.155731
26.9878	0.155731
27.9878	0.155731
28.9878	0.155701
29.9878	0.155701
30.9878	0.155701
31.9878	0.155701
32.9878	0.155701
33.9878	0.155701
34.9878	0.155701
35.9878	0.155701
36.9878	0.155701
37.9878	0.155701
38.9878	0.155701
39.9878	0.15567
40.9878	0.15567
41.9878	0.15567
42.9878	0.15567
43.9878	0.15567
44.9878	0.15567
45.9878	0.15567
46.9878	0.15567
47.9878	0.15567
48.9878	0.15567
49.9878	0.15567
50.9878	0.15564
51.9878	0.15564
52.9878	0.15564
53.9878	0.15564
54.9878	0.15564
55.9878	0.155609
56.9878	0.155609
57.9878	0.155609
58.9878	0.155609
59.9878	0.155609
60.9878	0.155579

File: OCP_3
Time (s)	WE(1).Potential (V)
681.554	0.767822
682.554	0.589905
683.554	0.443451
684.554	0.330353
685.554	0.255646
686.554	0.220795
687.554	0.204224
688.554	0.194122
689.554	0.18692
690.554	0.181335
691.554	0.176788
692.554	0.172943
693.554	0.169647
694.554	0.166718
695.554	0.164093
696.554	0.161713
697.554	0.159576
698.554	0.157562
699.554	0.155731
700.554	0.154022
701.554	0.152435
702.554	0.15094
703.554	0.149536
704.554	0.148193
705.554	0.146942
706.554	0.145752
707.554	0.144623
708.554	0.143555
709.554	0.142517
710.554	0.141541
711.554	0.140594
712.554	0.139679
713.554	0.138824
714.554	0.13797
715.554	0.137177
716.554	0.136383
717.554	0.135651
718.554	0.134949
719.554	0.134277
720.554	0.133575
721.554	0.132935
722.554	0.132294
723.554	0.131683
724.554	0.131104
725.554	0.130554
726.554	0.129974
727.554	0.129456
728.554	0.128906
729.554	0.128387
730.554	0.127899
731.554	0.127411
732.554	0.126953
733.554	0.126495
734.554	0.126068
735.554	0.125641
736.554	0.125214
737.554	0.124817
738.554	0.12439
739.554	0.124023
740.554	0.123596
741.554	0.12326
742.554	0.122864
743.554	0.122498
744.554	0.122162
745.554	0.121826
746.554	0.12149
747.554	0.121155
748.554	0.12085
749.554	0.120544
750.554	0.120239
751.554	0.119934
752.554	0.119659
753.554	0.119354
754.554	0.11908
755.554	0.118805
756.554	0.11853
757.554	0.118256
758.554	0.118011
759.554	0.117767
760.554	0.117523
761.554	0.117279
762.554	0.117035
763.554	0.116791
764.554	0.116577
765.554	0.116333
766.554	0.116119
767.554	0.115875
768.554	0.115662
769.554	0.115448
770.554	0.115234
771.554	0.115021
772.554	0.114838
773.554	0.114624
774.554	0.114441
775.554	0.114258
776.554	0.114075
777.554	0.113861
778.554	0.113708
779.554	0.113525
780.554	0.113342
781.554	0.113159
782.554	0.112976
783.554	0.112823
784.554	0.112671
785.554	0.112488
786.554	0.112335
787.554	0.112183
788.554	0.11203
789.554	0.111877
790.554	0.111725
791.554	0.111572
792.554	0.11142
793.554	0.111298
794.554	0.111145
795.554	0.111023
796.554	0.11087
797.554	0.110748
798.554	0.110626
799.554	0.110474
800.554	0.110382