Folder: electrochromicfilms/Edgar/20240508/20240508/electrodeposition_pulsed_potential_20240508_A

File: OCP_1
Time (s)	WE(1).Potential (V)
3.23376	0.523376
4.23376	0.523376
5.23376	0.523682
6.23376	0.523682
7.23376	0.523987
8.23376	0.523987
9.23376	0.524292
10.2338	0.524292
11.2338	0.524597
12.2338	0.524902
13.2338	0.524902
14.2338	0.525208
15.2338	0.525208
16.2338	0.525513
17.2338	0.525513
18.2338	0.525818
19.2338	0.525818
20.2338	0.526123
21.2338	0.526123
22.2338	0.526428
23.2338	0.526428
24.2338	0.526733
25.2338	0.526733
26.2338	0.526733
27.2338	0.527039
28.2338	0.527344
29.2338	0.527344
30.2338	0.527344
31.2338	0.527649
32.2338	0.527649
33.2338	0.527954
34.2338	0.527954
35.2338	0.528259
36.2338	0.528259
37.2338	0.528564
38.2338	0.528564
39.2338	0.52887
40.2338	0.52887
41.2338	0.529175
42.2338	0.529175
43.2338	0.52948
44.2338	0.52948
45.2338	0.52948
46.2338	0.529785
47.2338	0.529785
48.2338	0.53009
49.2338	0.53009
50.2338	0.530396
51.2338	0.530396
52.2338	0.530701
53.2338	0.530701
54.2338	0.530701
55.2338	0.531006
56.2338	0.531006
57.2338	0.531311
58.2338	0.531311
59.2338	0.531311
60.2338	0.531616
61.2338	0.531616
62.2338	0.531921
63.2338	0.531921
64.2338	0.532227
65.2338	0.532227
66.2338	0.532227
67.2338	0.532532
68.2338	0.532532
69.2338	0.532532
70.2338	0.532837
71.2338	0.532837
72.2338	0.533142
73.2338	0.533142
74.2338	0.533447
75.2338	0.533447
76.2338	0.533447
77.2338	0.533752
78.2338	0.533752
79.2338	0.533752
80.2338	0.534058
81.2338	0.534058
82.2338	0.534363
83.2338	0.534363
84.2338	0.534363
85.2338	0.534668
86.2338	0.534668
87.2338	0.534973
88.2338	0.534973
89.2338	0.534973
90.2338	0.535278
91.2338	0.535278
92.2338	0.535278
93.2338	0.535583
94.2338	0.535583
95.2338	0.535583
96.2338	0.535889
97.2338	0.535889
98.2338	0.536194
99.2338	0.536194
100.234	0.536194
101.234	0.536499
102.234	0.536499
103.234	0.536499
104.234	0.536804
105.234	0.536804
106.234	0.536804
107.234	0.537109
108.234	0.537109
109.234	0.537415
110.234	0.537415
111.234	0.537415
112.234	0.53772
113.234	0.53772
114.234	0.53772
115.234	0.538025
116.234	0.538025
117.234	0.538025
118.234	0.53833
119.234	0.53833
120.234	0.538635
121.234	0.538635
122.234	0.538635
123.234	0.538635
124.234	0.53894
125.234	0.53894
126.234	0.53894
127.234	0.539246
128.234	0.539246
129.234	0.539246
130.234	0.539551
131.234	0.539551
132.234	0.539551
133.234	0.539856
134.234	0.539856
135.234	0.539856
136.234	0.540161
137.234	0.540161
138.234	0.540161
139.234	0.540161
140.234	0.540466
141.234	0.540466
142.234	0.540466
143.234	0.540771
144.234	0.540771
145.234	0.540771
146.234	0.541077
147.234	0.541077
148.234	0.541077
149.234	0.541077
150.234	0.541382
151.234	0.541382
152.234	0.541382
153.234	0.541382
154.234	0.541687
155.234	0.541687
156.234	0.541687
157.234	0.541687
158.234	0.541687
159.234	0.541992
160.234	0.541992
161.234	0.541992
162.234	0.541992
163.234	0.541992
164.234	0.542297
165.234	0.542297
166.234	0.542297
167.234	0.542297
168.234	0.542297
169.234	0.542297
170.234	0.542297
171.234	0.542297
172.234	0.542603
173.234	0.542603
174.234	0.542603
175.234	0.542603
176.234	0.542603
177.234	0.542603
178.234	0.542603
179.234	0.542603
180.234	0.542603
181.234	0.542908
182.234	0.542908

File: OCP_3
Time (s)	WE(1).Potential (V)
5482.23	0.537109
5483.23	0.531311
5484.23	0.525818
5485.23	0.520935
5486.23	0.516357
5487.23	0.512085
5488.23	0.508423
5489.23	0.505066
5490.23	0.501709
5491.23	0.498718
5492.23	0.496155
5493.23	0.493805
5494.23	0.491638
5495.23	0.489655
5496.23	0.487854
5497.23	0.486206
5498.23	0.48468
5499.23	0.483307
5500.23	0.482056
5501.23	0.480957
5502.23	0.479919
5503.23	0.479004
5504.23	0.47818
5505.23	0.477478
5506.23	0.476807
5507.23	0.476227
5508.23	0.475647
5509.23	0.475159
5510.23	0.474731
5511.23	0.474365
5512.23	0.47406
5513.23	0.473785
5514.23	0.473572
5515.23	0.473389
5516.23	0.473175
5517.23	0.472961
5518.23	0.472809
5519.23	0.472687
5520.23	0.472595
5521.23	0.472504
5522.23	0.472473
5523.23	0.472412
5524.23	0.472412
5525.23	0.472412
5526.23	0.472412
5527.23	0.472443
5528.23	0.472534
5529.23	0.472595
5530.23	0.472595
5531.23	0.472656
5532.23	0.472687
5533.23	0.472748
5534.23	0.472778
5535.23	0.472809
5536.23	0.472809
5537.23	0.472809
5538.23	0.47287
5539.23	0.472961
5540.23	0.472992
5541.23	0.473053
5542.23	0.473145
5543.23	0.473175
5544.23	0.473236
5545.23	0.473297
5546.23	0.473389
5547.23	0.47345
5548.23	0.473541
5549.23	0.473572
5550.23	0.473633
5551.23	0.473633
5552.23	0.473663
5553.23	0.473694
5554.23	0.473724
5555.23	0.473755
5556.23	0.473785
5557.23	0.473785
5558.23	0.473846
5559.23	0.473877
5560.23	0.473907
5561.23	0.473938
5562.23	0.473999
5563.23	0.47406
5564.23	0.474121
5565.23	0.474152
5566.23	0.474213
5567.23	0.474213
5568.23	0.474243
5569.23	0.474274
5570.23	0.474304
5571.23	0.474365
5572.23	0.474365
5573.23	0.474396
5574.23	0.474457
5575.23	0.474487
5576.23	0.474518
5577.23	0.474518
5578.23	0.474518
5579.23	0.474548
5580.23	0.474548
5581.23	0.474579
5582.23	0.47464
5583.23	0.47464
5584.23	0.47467
5585.23	0.474701
5586.23	0.474731
5587.23	0.474762
5588.23	0.474792
5589.23	0.474792
5590.23	0.474823
5591.23	0.474854
5592.23	0.474854
5593.23	0.474884
5594.23	0.474915
5595.23	0.474915
5596.23	0.474976
5597.23	0.475006
5598.23	0.474976
5599.23	0.475006
5600.23	0.475067
5601.23	0.475067
5602.23	0.475098
5603.23	0.475128
5604.23	0.475159
5605.23	0.475189
5606.23	0.47522
5607.23	0.47522
5608.23	0.47522
5609.23	0.47522
5610.23	0.47525
5611.23	0.47525
5612.23	0.475281
5613.23	0.475281
5614.23	0.475311
5615.23	0.475311
5616.23	0.475372
5617.23	0.475403
5618.23	0.475403
5619.23	0.475403
5620.23	0.475433
5621.23	0.475464
5622.23	0.475464
5623.23	0.475464
5624.23	0.475494
5625.23	0.475525
5626.23	0.475525
5627.23	0.475555
5628.23	0.475586
5629.23	0.475586
5630.23	0.475647
5631.23	0.475647
5632.23	0.475677
5633.23	0.475708
5634.23	0.475739
5635.23	0.475769
5636.23	0.475769
5637.23	0.475769
5638.23	0.475769
5639.23	0.475769
5640.23	0.4758
5641.23	0.47583
5642.23	0.47583
5643.23	0.47583
5644.23	0.47583
5645.23	0.4758
5646.23	0.47583
5647.23	0.47583
5648.23	0.47583
5649.23	0.47583
5650.23	0.475861
5651.23	0.475861
5652.23	0.475891
5653.23	0.475891
5654.23	0.475861
5655.23	0.475861
5656.23	0.475861
5657.23	0.475861
5658.23	0.475922
5659.23	0.475952
5660.23	0.475983
5661.23	0.476013

File: pulses_0_to_1000.txt
Time (s)	WE(1).Potential (V)	WE(1).Current (A)
182.985	-0.699249	-0.0028479
187.345	0.54306	-6.16455e-06
191.665	0.542847	-5.82886e-06
196.005	-0.698395	-0.00277924
200.365	0.544098	-5.27954e-06
204.685	0.544312	-1.08643e-05
209.025	-0.698456	-0.00315247
213.385	0.543762	-3.90625e-06
217.705	0.543945	-1.04065e-05
222.045	-0.697449	-0.00332306
226.405	0.544098	-7.35474e-06
230.725	0.544495	-1.37329e-05
235.085	0.00211487	0.0038858
239.425	0.543365	-2.28882e-06
243.745	0.542999	-1.02539e-05
248.105	0.00158997	0.000770874
252.445	0.542877	-3.44849e-06
256.765	0.544464	-1.3916e-05
261.125	0.000997925	0.000195984
265.465	0.544495	-1.08643e-05
269.785	0.543091	-5.85937e-06
274.145	0.000964355	4.63867e-05
278.485	0.543274	-6.89697e-06
282.805	0.544006	-1.25427e-05
287.185	0.543243	0.000181061
291.505	0.543854	-8.3313e-06
295.825	0.542877	-5.12695e-06
300.205	0.544617	6.13098e-05
304.525	0.544647	-1.46484e-05
308.845	0.54425	-8.81958e-06
313.225	0.544281	3.47595e-05
317.545	0.542969	-3.17383e-06
321.865	0.544373	-1.37939e-05
326.245	0.542816	2.79541e-05
330.565	0.54422	-1.18713e-05
334.885	0.543213	-8.36182e-06
339.265	0.543274	1.69678e-05
343.585	0.544434	-1.46179e-05
347.905	0.542877	-5.18799e-06
352.285	0.542938	1.18103e-05
356.605	0.544373	-1.23596e-05
360.925	0.543854	-1.23596e-05
365.305	0.542969	1.03149e-05
369.625	0.543152	-7.50732e-06
373.945	0.543152	-3.72314e-06
378.325	0.542908	7.44629e-06
382.645	0.544006	-1.13525e-05
386.965	0.544464	-1.47705e-05
391.345	0.544189	-3.8147e-06
395.665	0.544342	-1.27258e-05
399.985	0.544464	-1.45569e-05
404.365	0.54303	2.62451e-06
408.685	0.544434	-1.6449e-05
413.005	0.543732	-1.15051e-05
417.385	0.544342	-8.54492e-06
421.705	0.544403	-1.2207e-05
426.025	0.543213	-8.60596e-06
430.405	0.543732	-3.44849e-06
434.725	0.543976	-1.23596e-05
439.045	0.542847	-4.94385e-06
443.425	0.543274	1.37329e-06
447.745	0.544495	-1.5686e-05
452.085	-0.698547	-0.0125092
456.445	0.544312	-8.81958e-06
460.765	0.542938	-5.52368e-06
465.105	-0.698761	-0.00899048
469.465	0.544434	-9.85718e-06
473.785	0.54306	-5.43213e-06
478.125	-0.697388	-0.00704926
482.485	0.544495	-1.22986e-05
486.805	0.543457	-8.54492e-06
491.145	-0.697571	-0.00590454
495.505	0.542847	-1.2207e-06
499.825	0.544495	-1.57776e-05
504.185	0.000576782	0.00930176
508.525	0.542877	-1.67847e-06
512.845	0.544098	-1.13525e-05
517.205	0.00146484	0.00602844
521.545	0.543549	-4.63867e-06
525.865	0.544525	-1.44348e-05
530.225	0.00203247	0.00366577
534.565	0.542847	-2.19727e-06
538.885	0.543304	-8.54492e-06
543.245	0.000714111	0.00193695
547.585	0.544159	-1.08643e-05
551.905	0.544067	-1.33057e-05
556.285	0.543274	0.000873718
560.605	0.54425	-1.26343e-05
564.925	0.54303	-4.97437e-06
569.305	0.544403	0.000226868
573.625	0.542969	-3.14331e-06
577.945	0.543518	-9.21631e-06
582.325	0.542999	0.000118103
586.645	0.544128	-1.19324e-05
590.965	0.542877	-3.9978e-06
595.345	0.542938	7.2998e-05
599.665	0.542694	-2.01416e-06
603.985	0.544373	-1.48926e-05
608.365	0.543457	4.45557e-05
612.685	0.543152	-3.63159e-06
617.005	0.543579	-8.39233e-06
621.385	0.542847	3.33862e-05
625.705	0.544403	-1.32446e-05
630.025	0.544342	-1.35498e-05
634.405	0.544464	1.41907e-05
638.725	0.543396	-8.42285e-06
643.045	0.542999	-4.91333e-06
647.425	0.543579	1.26648e-05
651.745	0.543152	-4.63867e-06
656.065	0.543488	-6.5918e-06
660.445	0.544464	3.90625e-06
664.765	0.544464	-1.27258e-05
669.085	0.543732	-1.05286e-05
673.465	0.542877	7.93457e-06
677.785	0.544434	-1.33972e-05
682.105	0.543945	-1.12305e-05
686.485	0.543182	6.80542e-06
690.805	0.542755	-2.7771e-06
695.125	0.544159	-1.14746e-05
699.505	0.543884	-3.08228e-06
703.825	0.544281	-1.01624e-05
708.145	0.54303	-6.40869e-06
712.525	0.543304	2.7771e-06
716.845	0.542877	-1.89209e-06
721.185	-0.696899	-0.0146515
725.545	0.544403	-6.86646e-06
729.865	0.544556	-1.36414e-05
734.205	-0.698425	-0.0109802
738.565	0.544434	-9.30786e-06
742.885	0.543945	-1.07422e-05
747.225	-0.697052	-0.00874634
751.585	0.542847	3.8147e-06
755.905	0.542877	-3.20435e-06
760.245	-0.697449	-0.00728851
764.605	0.543579	-2.74658e-06
768.925	0.543274	-6.13403e-06
773.285	0.00067749	0.00955811
777.625	0.543091	-1.95313e-06
781.945	0.544189	-1.18103e-05
786.305	0.00110168	0.00675751
790.645	0.543457	-4.24194e-06
794.965	0.543762	-8.78906e-06
799.325	0.000552368	0.00475067
803.666	0.542725	-1.09863e-06
807.986	0.544006	-9.64355e-06
812.346	0.000549316	0.00310303
816.686	0.542969	1.00708e-06
821.006	0.544464	-1.36719e-05
825.386	0.544525	0.00323608
829.706	0.542908	-3.57056e-06
834.026	0.54306	-3.63159e-06
838.406	0.544403	0.000405365
842.726	0.544006	-8.45337e-06
847.046	0.542786	-4.30298e-06
851.426	0.54303	0.00018985
855.746	0.543518	-4.57764e-06
860.066	0.543243	-5.98145e-06
864.446	0.543701	0.000106873
868.766	0.542938	-1.28174e-06
873.086	0.542816	-3.96729e-06
877.466	0.544525	6.10352e-05
881.786	0.544159	-7.17163e-06
886.106	0.544525	-1.35803e-05
890.486	0.544373	4.13818e-05
894.806	0.544403	-1.30615e-05
899.126	0.543945	-1.18713e-05
903.506	0.544342	2.85339e-05
907.826	0.542999	-9.46045e-07
912.146	0.544037	-1.25122e-05
916.526	0.544495	1.82495e-05
920.846	0.542969	-1.31226e-06
925.166	0.543457	-8.66699e-06
929.546	0.543121	2.06299e-05
933.866	0.544434	-1.22986e-05
938.186	0.544434	-1.297e-05
942.566	0.543457	1.33972e-05
946.886	0.543396	-6.74438e-06
951.206	0.543396	-7.56836e-06
955.586	0.544312	3.75366e-06
959.906	0.542816	-1.58691e-06
964.226	0.543701	-9.24683e-06
968.606	0.543549	6.92749e-06
972.926	0.544067	-9.73511e-06
977.246	0.542664	-2.83813e-06
981.626	0.544037	-2.74658e-07
985.946	0.543579	-7.47681e-06
990.286	-0.698273	-0.0160828
994.646	0.543732	3.08228e-06
998.966	0.54422	-1.19019e-05
1003.31	-0.698547	-0.0123505
1007.67	0.542816	6.46973e-06
1011.99	0.544159	-1.09558e-05
1016.33	-0.698639	-0.010022
1020.69	0.544464	-5.85937e-06
1025.01	0.542999	-3.05176e-06
1029.35	-0.697754	-0.0084198
1033.71	0.544464	-7.53784e-06
1038.03	0.542755	-1.80054e-06
1042.39	0.00101013	0.00946655
1046.73	0.544037	-4.24194e-06
1051.05	0.542847	-1.28174e-06
1055.41	0.00118103	0.00700012
1059.75	0.542816	1.98364e-06
1064.07	0.543701	-8.78906e-06
1068.43	0.000726318	0.00521942
1072.77	0.544373	-6.83594e-06
1077.09	0.542908	-3.96729e-06
1081.45	0.000616455	0.00373535
1085.79	0.543091	2.13623e-07
1090.11	0.543518	-6.04248e-06
1094.49	0.542908	0.00958862
1098.81	0.542908	1.86157e-06
1103.13	0.543213	-8.39233e-06
1107.51	0.54422	0.000698242
1111.83	0.543549	-4.82178e-06
1116.15	0.544189	-1.03149e-05
1120.53	0.543121	0.000278259
1124.85	0.543365	-4.02832e-06
1129.17	0.543396	-6.34766e-06
1133.55	0.54303	0.000153412
1137.87	0.542908	5.18799e-07
1142.19	0.543335	-5.0354e-06
1146.57	0.544098	9.18884e-05
1150.89	0.542908	1.25122e-06
1155.21	0.542969	-3.32642e-06
1159.59	0.543396	6.75049e-05
1163.91	0.542725	9.76562e-07
1168.23	0.544281	-1.07422e-05
1172.61	0.543518	4.7821e-05
1176.93	0.543427	-3.93677e-06
1181.25	0.544128	-1.01624e-05
1185.63	0.543457	3.72925e-05
1189.95	0.544159	-1.13525e-05
1194.27	0.544434	-1.09558e-05
1198.65	0.543579	2.43835e-05
1202.97	0.543701	-6.31714e-06
1207.29	0.544342	-1.52588e-05
1211.67	0.54425	1.35193e-05
1215.99	0.544006	-7.44629e-06
1220.31	0.543274	-4.48608e-06
1224.69	0.543518	1.37329e-05
1229.01	0.542877	-1.52588e-06
1233.33	0.544037	-1.33362e-05
1237.71	0.543457	1.19934e-05
1242.03	0.544006	-1.08643e-05
1246.35	0.543915	-1.00708e-05
1250.73	0.543121	1.4679e-05
1255.05	0.543121	-2.0752e-06
1259.39	-0.697693	-0.0172302
1263.75	0.542969	9.33838e-06
1268.07	0.543304	-6.13403e-06
1272.41	-0.698639	-0.0134338
1276.77	0.544342	3.35693e-07
1281.09	0.543945	-1.05896e-05
1285.43	-0.697449	-0.0110901
1289.79	0.54364	6.71387e-07
1294.11	0.544464	-1.37329e-05
1298.45	-0.697723	-0.00938416
1302.81	0.544434	-4.63867e-06
1307.13	0.54303	-3.35693e-06
1311.49	0.000274658	0.00927124
1315.83	0.543488	-1.43433e-06
1320.15	0.544006	-9.06372e-06
1324.51	0.000942993	0.00705475
1328.85	0.543213	1.06812e-06
1333.17	0.543457	-6.71387e-06
1337.53	0.000845337	0.00543091
1341.87	0.542877	4.48608e-06
1346.19	0.543152	-1.98364e-06
1350.55	0.000494385	0.00409119
1354.89	0.543671	-2.65503e-06
1359.21	0.543884	-7.96509e-06
1363.59	0.542908	0.0117065
1367.91	0.543579	-3.2959e-06
1372.23	0.542938	-2.65503e-06
1376.61	0.543671	0.00126923
1380.93	0.542847	1.12915e-06
1385.25	0.542847	-2.41089e-06
1389.63	0.544403	0.000383118
1393.95	0.543854	-2.19727e-06
1398.27	0.544128	-9.552e-06
1402.65	0.543335	0.00020462
1406.97	0.544434	-8.78906e-06
1411.29	0.543396	-5.06592e-06
1415.67	0.543549	0.000125275
1419.99	0.544556	-8.14819e-06
1424.31	0.544586	-1.33667e-05
1428.69	0.543243	8.61206e-05
1433.01	0.542877	1.67847e-06
1437.33	0.542969	-2.53296e-06
1441.71	0.542908	6.55518e-05
1446.03	0.54422	-9.12476e-06
1450.35	0.543884	-1.01929e-05
1454.73	0.54425	3.91846e-05
1459.05	0.54306	-9.15527e-07
1463.37	0.544464	-1.27869e-05
1467.75	0.544434	2.88696e-05
1472.07	0.54425	-1.02234e-05
1476.39	0.544159	-9.97925e-06
1480.77	0.543274	2.84119e-05
1482.95	0.544098	-1.06812e-05

File: pulses_1000_to_2000.txt
Time (s)	WE(1).Potential (V)	WE(1).Current (A)
1507.88	-0.697723	-0.0181946
1512.24	0.544281	4.30298e-06
1516.56	0.543427	-6.86646e-06
1520.9	-0.697021	-0.0142609
1525.26	0.542847	1.18103e-05
1529.58	0.544342	-1.23901e-05
1533.92	-0.697083	-0.011911
1538.28	0.54425	1.46484e-06
1542.6	0.544556	-1.27869e-05
1546.94	-0.697113	-0.0101624
1551.3	0.543335	5.37109e-06
1555.62	0.543549	-5.0354e-06
1559.98	0.00153198	0.00900269
1564.32	0.542816	8.17871e-06
1568.64	0.54425	-9.70459e-06
1573	0.00045166	0.00698669
1577.34	0.543335	5.31006e-06
1581.66	0.54422	-8.94165e-06
1586.02	0.000387573	0.00548462
1590.36	0.544159	-3.23486e-06
1594.68	0.543915	-1.01318e-05
1599.04	0.00134888	0.00423218
1603.38	0.543549	1.52588e-07
1607.7	0.542908	-2.71606e-06
1612.08	0.543152	0.0128296
1616.4	0.544006	-2.50244e-06
1620.72	0.544098	-1.02844e-05
1625.1	0.544281	0.0026236
1629.42	0.543396	-9.15527e-08
1633.74	0.543823	-6.56128e-06
1638.12	0.543915	0.000515747
1642.44	0.543732	-2.31934e-06
1646.76	0.544067	-7.56836e-06
1651.14	0.542847	0.000257782
1655.46	0.544342	-5.95093e-06
1659.78	0.543274	-1.86157e-06
1664.16	0.544159	0.000149689
1668.48	0.543579	-1.80054e-06
1672.8	0.544434	-1.45874e-05
1677.18	0.543762	0.000101105
1681.5	0.543976	-5.98145e-06
1685.82	0.542908	-1.00708e-06
1690.2	0.542969	7.95593e-05
1694.52	0.544556	-9.52148e-06
1698.84	0.543091	-2.2583e-06
1703.22	0.542816	6.03943e-05
1707.54	0.543152	-6.10352e-07
1711.86	0.544006	-1.28784e-05
1716.24	0.542969	4.56238e-05
1720.56	0.54425	-6.7749e-06
1724.88	0.542755	-2.80762e-06
1729.26	0.543793	3.0426e-05
1733.58	0.544434	-9.18579e-06
1737.9	0.543488	-5.95093e-06
1742.28	0.542755	3.11584e-05
1746.6	0.54361	-3.63159e-06
1750.92	0.542999	-3.78418e-06
1755.3	0.543915	1.83105e-05
1759.62	0.544495	-1.02234e-05
1763.94	0.542999	-3.35693e-07
1768.32	0.544159	1.25122e-05
1772.64	0.543945	-9.15527e-06
1776.98	-0.696655	-0.019101
1781.34	0.542908	1.70898e-05
1785.66	0.543793	-6.28662e-06
1790	-0.698212	-0.0151215
1794.36	0.544128	7.90405e-06
1798.68	0.544281	-7.69043e-06
1803.02	-0.698334	-0.0127716
1807.38	0.543671	7.72095e-06
1811.7	0.542999	-8.54492e-07
1816.04	-0.697357	-0.0110077
1820.4	0.542877	9.82666e-06
1824.72	0.543121	-1.25122e-06
1829.08	0.000518799	0.00870667
1833.42	0.544006	2.10571e-06
1837.74	0.543732	-5.95093e-06
1842.1	0.00187378	0.0068689
1846.44	0.544006	2.74658e-06
1850.76	0.542908	-2.44141e-06
1855.12	0.000952148	0.00550598
1859.46	0.543823	2.62451e-06
1863.78	0.54306	-1.49536e-06
1868.14	0.00205383	0.00434662
1872.48	0.54364	1.15967e-06
1876.8	0.542847	-1.83105e-06
1881.18	0.542694	0.0139008
1885.5	0.543793	-8.23975e-07
1889.82	0.544159	-1.00098e-05
1894.2	0.542603	0.00808716
1898.52	0.543854	-6.10352e-08
1902.84	0.543396	-5.43213e-06
1907.22	0.544159	0.000763245
1911.54	0.544037	-5.98145e-06
1915.86	0.54303	-2.28882e-06
1920.24	0.542969	0.000339722
1924.56	0.542999	3.08228e-06
1928.88	0.542847	-1.43433e-06
1933.26	0.544098	0.000192932
1937.58	0.543121	1.2207e-07
1941.9	0.543427	-5.40161e-06
1946.28	0.543182	0.000129974
1950.6	0.54425	-5.92041e-06
1954.92	0.543518	-5.64575e-06
1959.3	0.544006	8.73108e-05
1963.62	0.542908	3.63159e-06
1967.94	0.543793	-8.39233e-06
1972.32	0.543182	6.98853e-05
1976.64	0.542938	2.10571e-06
1980.96	0.54364	-6.53076e-06
1985.34	0.543549	5.29785e-05
1989.66	0.543243	-1.49536e-06
1993.98	0.544373	-1.2146e-05
1998.36	0.543457	3.97339e-05
2002.68	0.54425	-1.06812e-05
2007	0.544403	-1.2207e-05
2011.38	0.543732	3.15857e-05
2015.7	0.542694	1.5564e-06
2020.02	0.544373	-1.41602e-05
2024.4	0.544067	2.30713e-05
2028.72	0.543182	-1.28174e-06
2033.04	0.542969	-5.24902e-06
2037.42	0.544159	1.73645e-05
2041.74	0.542816	6.71387e-07
2046.08	-0.697632	-0.0199799
2050.44	0.544434	7.99561e-06
2054.76	0.543579	-3.66211e-06
2059.1	-0.697479	-0.0159607
2063.46	0.54303	1.5686e-05
2067.78	0.542969	2.44141e-07
2072.12	-0.696899	-0.0135712
2076.48	0.543518	1.09863e-05
2080.8	0.544373	-9.73511e-06
2085.14	-0.69693	-0.0118164
2089.5	0.544525	1.19019e-06
2093.82	0.543762	-6.80542e-06
2098.18	0.000875854	0.00834045
2102.52	0.544006	3.93677e-06
2106.84	0.542938	-2.19727e-06
2111.2	0.00119934	0.0066983
2115.54	0.54361	6.68335e-06
2119.86	0.543793	-8.20923e-06
2124.22	0.00139465	0.00542206
2128.56	0.544128	-4.27246e-07
2132.88	0.543152	-4.73022e-06
2137.24	0.00189819	0.00436218
2141.58	0.544403	-2.47192e-06
2145.9	0.543121	-1.67847e-06
2150.28	0.542297	0.0146423
2154.6	0.544495	-4.11987e-06
2158.92	0.543213	-2.0752e-06
2163.3	0.543213	0.00995483
2167.62	0.543945	-9.15527e-07
2171.94	0.543579	-6.2561e-06
2176.32	0.543427	0.00124786
2180.64	0.542908	5.46265e-06
2184.96	0.544189	-8.14819e-06
2189.34	0.544037	0.000434326
2193.66	0.542938	1.58691e-06
2197.98	0.543427	-3.93677e-06
2202.36	0.543213	0.000240448
2206.68	0.544342	-4.60815e-06
2211	0.543549	-6.56128e-06
2215.38	0.542877	0.000159149
2219.7	0.542908	4.79126e-06
2224.02	0.54425	-1.02844e-05
2228.4	0.543243	0.000109589
2232.72	0.544495	-6.5918e-06
2237.04	0.543243	-2.89917e-06
2241.42	0.543701	7.93457e-05
2245.74	0.542816	2.22778e-06
2250.06	0.544373	-1.29089e-05
2254.44	0.542847	6.19507e-05
2258.76	0.542847	2.47192e-06
2263.08	0.542877	-1.12915e-06
2267.46	0.544037	4.19312e-05
2271.78	0.543304	-2.62451e-06
2276.1	0.544525	-1.2085e-05
2280.48	0.543762	3.77197e-05
2284.8	0.544342	-7.69043e-06
2289.12	0.54425	-9.49097e-06
2293.5	0.543121	3.16772e-05
2297.82	0.542847	1.15967e-06
2302.14	0.544342	-1.09863e-05
2306.52	0.542847	2.77405e-05
2310.84	0.544403	-6.13403e-06
2315.18	-0.696564	-0.0207703
2319.54	0.544128	1.75476e-05
2323.86	0.544189	-7.2937e-06
2328.2	-0.698029	-0.0167694
2332.56	0.542908	2.00806e-05
2336.88	0.542816	1.40381e-06
2341.22	-0.698303	-0.0143616
2345.58	0.544373	6.53076e-06
2349.9	0.54303	-6.71387e-07
2354.24	-0.697388	-0.0126038
2358.6	0.543182	9.94873e-06
2362.92	0.54364	-6.83594e-06
2367.28	0.000274658	0.00791931
2371.62	0.544312	3.63159e-06
2375.94	0.544189	-8.36182e-06
2380.3	0.00183716	0.00644287
2384.64	0.543152	9.30786e-06
2388.96	0.542877	1.2207e-07
2393.32	0.000674438	0.00528748
2397.66	0.543213	5.5542e-06
2401.98	0.544067	-9.27734e-06
2406.34	0.00065918	0.00430206
2410.68	0.543854	5.5542e-06
2415	0.54303	-1.00708e-06
2419.38	0.543121	0.0151703
2423.7	0.542755	9.33838e-06
2428.02	0.544434	-9.42993e-06
2432.4	0.542328	0.0111664
2436.72	0.54306	7.2937e-06
2441.04	0.543488	-4.45557e-06
2445.42	0.54303	0.00458832
2449.74	0.542877	5.12695e-06
2454.06	0.542938	-9.15527e-08
2458.44	0.544403	0.000596313
2462.76	0.544098	-2.53296e-06
2467.08	0.544373	-1.11084e-05
2471.46	0.542999	0.000307617
2475.78	0.543976	-2.83813e-06
2480.1	0.543091	3.05176e-08
2484.48	0.543579	0.000186188
2488.8	0.544128	-7.93457e-07
2493.12	0.543945	-8.23975e-06
2497.5	0.543091	0.000130737
2501.82	0.544403	-7.1106e-06
2506.14	0.543243	-2.16675e-06
2510.52	0.542999	9.45129e-05
2514.84	0.542786	3.2959e-06
2519.16	0.544373	-1.10168e-05
2523.54	0.543335	7.08008e-05
2527.86	0.544403	-5.52368e-06
2532.18	0.544495	-1.15662e-05
2536.56	0.543945	5.16968e-05
2540.88	0.54425	-6.68335e-06
2545.2	0.543121	-1.46484e-06
2549.58	0.544342	3.54614e-05
2553.9	0.544556	-7.87354e-06
2558.22	0.544464	-1.04675e-05
2562.6	0.542877	3.80859e-05
2566.92	0.543732	-1.37329e-06
2571.24	0.544128	-1.01013e-05
2575.62	0.544037	2.27966e-05
2579.94	0.544403	-9.97925e-06
2584.28	-0.696259	-0.0214417
2588.64	0.542908	2.63672e-05
2592.96	0.544403	-8.91113e-06
2597.3	-0.697021	-0.0175903
2601.66	0.544006	1.54419e-05
2605.98	0.543182	-1.40381e-06
2610.32	-0.698181	-0.0151337
2614.68	0.543427	1.69067e-05
2619	0.544403	-8.57544e-06
2623.34	-0.698425	-0.0133575
2627.7	0.543915	9.91821e-06
2632.02	0.542938	7.32422e-07
2636.38	0.00184021	0.00747894
2640.72	0.543518	1.12305e-05
2645.04	0.543274	-1.0376e-06
2649.4	0.00202942	0.00614471
2653.74	0.54303	1.26648e-05
2658.06	0.543884	-5.27954e-06
2662.42	0.000543213	0.00507874
2666.76	0.542847	1.17798e-05
2671.08	0.544128	-7.99561e-06
2675.44	0.0010376	0.00417511
2679.78	0.543152	8.75854e-06
2684.1	0.543671	-5.7373e-06
2688.48	0.542511	0.0155701
2692.8	0.543335	5.27954e-06
2697.12	0.544464	-1.09558e-05
2701.5	0.542725	0.0119934
2705.82	0.542999	7.35474e-06
2710.14	0.544403	-1.15662e-05
2714.52	0.544006	0.00803528
2718.84	0.544434	-1.12915e-06
2723.16	0.544556	-1.08032e-05
2727.54	0.542969	0.000980835
2731.86	0.544159	-2.01416e-06
2736.18	0.543304	-3.20435e-06
2740.56	0.544128	0.000390198
2744.88	0.542969	3.78418e-06
2749.2	0.543152	-3.35693e-06
2753.58	0.544617	0.000222687
2757.9	0.54303	7.32422e-06
2762.22	0.543182	-3.2959e-06
2766.6	0.544098	0.000146423
2770.92	0.543976	-4.08936e-06
2775.24	0.543182	-1.15967e-06
2779.62	0.542847	0.000113129
2783.94	0.544067	-2.92969e-06
2788.26	0.544128	-7.50732e-06
2792.64	0.542847	8.46252e-05
2796.96	0.544403	-5.09644e-06
2801.28	0.542908	-1.25122e-06
2805.66	0.544281	5.61523e-05
2807.84	0.544403	-1.23291e-05