Folder: electrochromicfilms/Edgar/20240607/20240607/electrodeposition_pulsed_potential_20240607_A (part 3)

File: pulses_4000_to_5000.txt
Time (s)	WE(1).Potential (V)	WE(1).Current (A)
3019.07	-0.698395	-0.0246765
3021.41	-0.000772095	0.00943909
3023.73	-0.000784302	0.00535767
3026.07	-0.697876	-0.0217316
3028.41	-0.000930786	0.00953369
3030.73	-2.13623e-05	0.00539764
3033.07	-0.698883	-0.0216949
3035.41	-0.000143433	0.00955505
3037.73	0.000170898	0.00540894
3040.07	-0.698059	-0.021698
3042.41	8.54492e-05	0.00953979
3044.73	-0.000488281	0.00542664
3047.07	-0.698486	-0.0216736
3049.41	-0.00057373	0.00956116
3051.73	-0.000524902	0.00543182
3054.07	-0.698059	-0.0216797
3056.41	0.000708008	0.00955811
3058.73	-0.000674438	0.00543579
3061.07	-0.698608	-0.0216736
3063.41	0.000601196	0.0095459
3065.73	0.000708008	0.00542816
3068.07	-0.698914	-0.0216553
3070.41	4.27246e-05	0.009552
3072.73	-0.000259399	0.00544189
3075.07	-0.698853	-0.0216522
3077.41	0.000396729	0.00953369
3079.73	0.00032959	0.00543793
3082.07	-0.698975	-0.0216553
3084.41	-0.000344849	0.00953369
3086.73	-0.00062561	0.00545288
3089.07	-0.697601	-0.0216644
3091.41	-0.000765991	0.0095459
3093.73	0.000378418	0.00544525
3096.07	-0.698364	-0.0216492
3098.41	4.88281e-05	0.00953979
3100.73	-0.000546265	0.00545776
3103.07	-0.698151	-0.0216583
3105.41	-0.000921631	0.00952454
3107.73	0.000872803	0.00545349
3110.07	-0.697784	-0.0216461
3112.41	-0.000524902	0.00953064
3114.73	0.00050354	0.00545441
3117.07	-0.699005	-0.0216431
3119.41	-0.000588989	0.00952148
3121.73	-0.000683594	0.00546478
3124.07	-0.697876	-0.0216492
3126.41	-0.000750732	0.00951538
3128.73	-0.000332642	0.00547089
3131.07	-0.698395	-0.0216339
3133.41	0.000619507	0.00950928
3135.73	0.0009552	0.00545837
3138.07	-0.699005	-0.021637
3140.41	-0.000100708	0.00951233
3142.73	0.000540161	0.00546814
3145.07	-0.698547	-0.02164
3147.41	-0.000866699	0.00950317
3149.73	0.000930786	0.00546326
3152.07	-0.698914	-0.0216217
3154.41	-0.000167847	0.00949707
3156.73	0.000689697	0.00546509
3159.07	-0.697296	-0.0216309
3161.41	-0.000921631	0.00950012
3163.73	0.000869751	0.00546997
3166.07	-0.698822	-0.021637
3168.41	-0.000540161	0.00947571
3170.73	0.000747681	0.00547241
3173.07	-0.699036	-0.0216309
3175.41	-0.000698853	0.00949402
3177.73	0.000964355	0.00547272
3180.07	-0.698608	-0.0216217
3182.41	0.000222778	0.0094696
3184.73	0.000674438	0.00547638
3187.07	-0.697357	-0.0216278
3189.41	0.000585937	0.00947876
3191.73	0.0009552	0.00547882
3194.07	-0.698944	-0.0216125
3196.41	-0.000891113	0.00947571
3198.73	-0.000143433	0.00548981
3201.07	-0.698883	-0.0216217
3203.41	-0.000802612	0.00947876
3205.73	-1.83105e-05	0.00549255
3208.07	-0.69873	-0.0216064
3210.41	0.000509644	0.00945129
3212.73	0.000192261	0.00549225
3215.07	-0.697723	-0.0216248
3217.41	0.000488281	0.00945435
3219.73	0.000326538	0.00548767
3222.07	-0.697449	-0.0216095
3224.41	-8.23975e-05	0.00944824
3226.73	0.00072937	0.00549072
3229.07	-0.697327	-0.0216187
3231.41	2.13623e-05	0.00944824
3233.73	6.10352e-05	0.00550018
3236.07	-0.697174	-0.0216095
3238.41	-0.000634766	0.0094574
3240.73	0.000778198	0.00549652
3243.07	-0.698608	-0.0216034
3245.41	-0.000866699	0.00944824
3247.73	-5.18799e-05	0.00549835
3250.07	-0.698425	-0.0216095
3252.41	-0.000881958	0.00944519
3254.73	-0.00065918	0.00550903
3257.07	-0.698669	-0.0215973
3259.41	0.000518799	0.00943604
3261.73	0.000552368	0.00549835
3264.07	-0.698853	-0.0215851
3266.41	0.000228882	0.00942078
3268.73	-0.000540161	0.00550568
3271.07	-0.698669	-0.0215851
3273.41	4.27246e-05	0.00943909
3275.73	-0.00065918	0.00551361
3278.07	-0.698059	-0.021579
3280.41	-0.000769043	0.00943604
3282.73	0.000454712	0.00551178
3285.07	-0.697327	-0.0215942
3287.41	0.000253296	0.00941772
3289.73	0.000393677	0.00550751
3292.07	-0.699005	-0.0215851
3294.41	-0.000921631	0.00942688
3296.73	-0.000421143	0.00551727
3299.07	-0.697815	-0.021579
3301.41	-0.000970459	0.00942383
3303.73	-0.00062561	0.0055249
3306.07	-0.697876	-0.0215942
3308.41	-0.000717163	0.00942993
3310.73	0.000366211	0.00551575
3313.07	-0.697998	-0.0215759
3315.41	5.79834e-05	0.00942993
3317.73	1.2207e-05	0.00551971
3320.07	-0.697388	-0.0215851
3322.41	0.000720215	0.00941467
3324.73	-0.000646973	0.00553101
3327.07	-0.6987	-0.0215637
3329.41	-0.00065918	0.00941772
3331.73	6.10352e-06	0.00552124
3334.07	-0.698303	-0.0215576
3336.41	0.00067749	0.00940857
3338.73	0.000744629	0.00552582
3341.07	-0.698639	-0.0215607
3343.41	0.000402832	0.00939941
3345.73	0.00085144	0.00552765
3348.07	-0.697479	-0.0215759
3350.41	-0.000701904	0.00941162
3352.73	0.000939941	0.00552734
3355.07	-0.697266	-0.0215729
3357.41	-7.62939e-05	0.00941162
3359.73	0.000680542	0.00553345
3362.07	-0.697998	-0.0215607
3364.41	0.000161743	0.00939026
3366.73	0.0010437	0.0055365
3369.07	-0.698853	-0.0215576
3371.41	-0.000900269	0.00940552
3373.73	0.000552368	0.00554199
3376.07	-0.697693	-0.0215698
3378.41	-0.000610352	0.00940552
3380.73	-0.000314331	0.00555145
3383.07	-0.698517	-0.0215729
3385.41	-0.000854492	0.00939941
3387.73	-3.05176e-05	0.00554962
3390.07	-0.699005	-0.0215515
3392.41	-0.000891113	0.00939331
3394.73	-0.000192261	0.00555237
3397.07	-0.698853	-0.0215454
3399.41	-0.000436401	0.00939941
3401.73	-0.000714111	0.00555939
3404.07	-0.698029	-0.0215424
3406.41	-0.000952148	0.00939026
3408.73	-0.000662231	0.00556122
3411.07	-0.698547	-0.0215302
3413.41	0.000247192	0.00937805
3415.73	7.93457e-05	0.00555481
3418.07	-0.697449	-0.0215424
3420.41	-0.000967407	0.00939331
3422.73	-0.00022583	0.00556732
3425.07	-0.698822	-0.0215454
3427.41	-0.000805664	0.00937805
3429.73	0.000341797	0.00556152
3432.07	-0.698334	-0.0215546
3434.41	-0.00010376	0.00938721
3436.73	0.000616455	0.00555847
3439.07	-0.698395	-0.0215576
3441.41	-0.00093689	0.00940552
3443.73	0.000326538	0.00556763
3446.07	-0.697784	-0.021579
3448.41	8.23975e-05	0.00939941
3450.73	-0.000238037	0.00556915
3453.07	-0.697845	-0.0215698
3455.41	0.000622559	0.00938416
3457.73	0.00101929	0.0055661
3460.07	-0.698425	-0.0215546
3462.41	0.000637817	0.00937805
3464.73	0.000256348	0.00557434
3467.07	-0.697388	-0.0215698
3469.41	-0.000515747	0.00939941
3471.73	-0.000637817	0.00557953
3474.07	-0.698517	-0.0215454
3476.41	0.00017395	0.00938721
3478.73	-0.000817871	0.00558014
3481.07	-0.698639	-0.0215515
3483.41	0.000408936	0.00938721
3485.73	0.000909424	0.0055777
3488.07	-0.697601	-0.0215546
3490.41	0.000634766	0.0093811
3492.73	0.000686646	0.00557861
3495.07	-0.697998	-0.0215485
3497.41	0.000524902	0.00937805
3499.73	-0.00038147	0.00558533
3502.07	-0.697388	-0.0215576
3504.41	-0.00103149	0.0093689
3506.73	-0.000585937	0.00559387
3509.07	-0.697266	-0.0215485
3511.41	0.000534058	0.00936584
3513.73	0.000506592	0.0055835
3516.07	-0.697266	-0.0215454
3518.41	-0.000354004	0.00937805
3520.73	-0.000585937	0.00559631
3523.07	-0.69751	-0.0215485
3525.41	-0.000881958	0.009375
3527.73	0.000695801	0.00558807
3530.07	-0.698639	-0.021524
3532.41	-0.000891113	0.00935974
3534.73	-0.000375366	0.00559906
3537.07	-0.697601	-0.0215485
3539.41	0.000473022	0.00934753
3541.73	0.000720215	0.00559662
3544.07	-0.698975	-0.0215302
3546.41	-0.000842285	0.00935974
3548.73	-0.000738525	0.00560547
3551.07	-0.697845	-0.0215393
3553.41	-0.000921631	0.00934448
3555.73	-0.000524902	0.00560516
3558.07	-0.698792	-0.0215271
3560.41	0.000592041	0.00935059
3562.73	0.000537109	0.00560272
3565.07	-0.697266	-0.0215302
3567.41	4.27246e-05	0.00935364
3569.73	0.000814819	0.00560364
3572.07	-0.697327	-0.021524
3574.41	-2.13623e-05	0.00935364
3576.73	2.13623e-05	0.00560486
3579.07	-0.697784	-0.021521
3581.41	0.000750732	0.00935364
3583.73	0.000765991	0.00560883
3586.07	-0.698425	-0.0215118
3588.41	-0.00017395	0.00934753
3590.73	0.000546265	0.00560974
3593.07	-0.697693	-0.021521
3595.41	-0.000170898	0.00933533
3597.73	0.000762939	0.00561188
3600.07	-0.698761	-0.0215118
3602.41	-0.000738525	0.00934143
3604.73	-2.74658e-05	0.00562378
3607.07	-0.698853	-0.0214996
3609.41	-0.000836182	0.00932617
3611.73	-0.00017395	0.00561859
3614.07	-0.69873	-0.0214935
3616.41	0.000292969	0.00933838
3618.73	0.000769043	0.00561768
3621.07	-0.698486	-0.0215057
3623.41	0.000396729	0.00932922
3625.73	8.8501e-05	0.00562317
3628.07	-0.697479	-0.0215057
3630.41	-0.000854492	0.00932007
3632.73	-0.000631714	0.00563477
3635.07	-0.698792	-0.0214996
3637.41	0.00065918	0.00932007
3639.73	0.00102539	0.00562439
3642.07	-0.697388	-0.0214996
3644.41	0.000814819	0.00932312
3646.73	0.000866699	0.00562653
3649.07	-0.697388	-0.0214935
3651.41	-0.000497437	0.00932922
3653.73	0.000805664	0.00562622
3656.07	-0.697296	-0.0214905
3658.41	-0.000485229	0.00932617
3660.73	-0.000637817	0.0056427
3663.07	-0.698029	-0.0214783
3665.41	0.000634766	0.00931091
3667.73	0.000280762	0.00563385
3670.07	-0.698608	-0.0214813
3672.41	-0.000170898	0.00929871
3674.73	-0.000424194	0.00564697
3677.07	-0.697388	-0.0214966
3679.41	0.000588989	0.00931396
3681.73	0.000994873	0.00563507
3684.07	-0.698608	-0.0214752
3686.41	0.000534058	0.00930176
3688.73	-0.000463867	0.00564545
3691.07	-0.697937	-0.0214783
3693.41	0.000125122	0.0092926
3695.73	0.000918579	0.00563995
3698.07	-0.69873	-0.0214844
3700.41	0.000280762	0.00930786
3702.73	-0.000424194	0.00565033
3705.07	-0.698669	-0.0214783
3707.41	0.000518799	0.0092865
3709.73	0.000650024	0.00564728
3712.07	-0.698029	-0.021463
3714.41	-0.000927734	0.00929871
3716.73	-0.0006073	0.00565094
3719.03	-0.000585937	0.00357544