Folder: electrochromicfilms/Edgar/20240607/20240607/electrodeposition_pulsed_potential_20240607_E (part 2)

File: pulses_2000_to_3000.txt
Time (s)	WE(1).Potential (V)	WE(1).Current (A)
1599.14	-0.698059	-0.018985
1601.48	-0.000656128	0.00625549
1603.8	-0.000585937	0.00336823
1606.14	-0.697571	-0.0169128
1608.48	7.93457e-05	0.00638306
1610.8	0.000491333	0.00342621
1613.14	-0.698212	-0.016864
1615.48	0.000375366	0.00640686
1617.8	-0.000714111	0.00345917
1620.14	-0.699585	-0.0168457
1622.48	0.00104675	0.00641937
1624.8	-0.000775146	0.00347748
1627.14	-0.699097	-0.0168335
1629.48	0.000915527	0.00642365
1631.8	0.000848389	0.00348877
1634.14	-0.697754	-0.0168243
1636.48	-0.000402832	0.00642303
1638.8	0.00027771	0.00349335
1641.14	-0.69754	-0.0168182
1643.48	-0.000314331	0.00642761
1645.8	0.000830078	0.00349579
1648.14	-0.698334	-0.016803
1650.48	-0.000759888	0.0064328
1652.8	-0.000357056	0.00350952
1655.14	-0.699341	-0.0167999
1657.48	0.000497437	0.00642181
1659.8	-0.00078125	0.00351959
1662.14	-0.698364	-0.016806
1664.48	0.000341797	0.00641632
1666.8	0.000604248	0.00351837
1669.14	-0.697998	-0.016806
1671.48	-0.000112915	0.00641541
1673.8	6.10352e-05	0.00352051
1676.14	-0.698395	-0.0167938
1678.48	0.000234985	0.00641479
1680.8	0.000680542	0.00353119
1683.14	-0.699097	-0.0167877
1685.48	0.000265503	0.00640198
1687.8	-0.000283813	0.00353363
1690.14	-0.699341	-0.0167908
1692.48	-0.000585937	0.00640839
1694.8	0.00117493	0.00353119
1697.14	-0.698486	-0.0167969
1699.48	-0.000415039	0.00640778
1701.8	-0.000738525	0.00354767
1704.14	-0.69754	-0.0167847
1706.48	2.13623e-05	0.00639923
1708.8	0.0013092	0.00353943
1711.14	-0.69812	-0.0167725
1713.48	0.00101624	0.00638702
1715.8	-0.000631714	0.00355469
1718.14	-0.698608	-0.0167694
1720.48	0.00105591	0.00638336
1722.8	-0.000808716	0.00355682
1725.14	-0.699463	-0.0167694
1727.48	0.000213623	0.0063855
1729.8	-0.000772095	0.00356323
1732.14	-0.69754	-0.0167755
1734.48	-0.000814819	0.00638428
1736.8	0.0009552	0.00355408
1739.14	-0.699371	-0.0167664
1741.48	0.000756836	0.00637085
1743.8	8.8501e-05	0.00356781
1746.14	-0.697632	-0.0167664
1748.48	0.000973511	0.00636932
1750.8	0.00083313	0.00356262
1753.14	-0.697479	-0.0167694
1755.48	0.00072937	0.00636597
1757.8	0.000686646	0.00356445
1760.14	-0.699432	-0.0167419
1762.48	0.00116577	0.00635864
1764.8	-0.000363159	0.00357544
1767.14	-0.698029	-0.016748
1769.48	0.00102539	0.00635437
1771.8	0.000549316	0.00357208
1774.14	-0.698608	-0.0167389
1776.48	0.000994873	0.00635254
1778.8	-0.000811768	0.00358795
1781.14	-0.699371	-0.0167389
1783.48	0.000863647	0.0063446
1785.8	-0.000738525	0.00359283
1788.14	-0.698029	-0.0167511
1790.48	-0.000518799	0.00634979
1792.8	0.000906372	0.00358276
1795.14	-0.698334	-0.0167267
1797.48	-0.000665283	0.00634827
1799.8	-0.000576782	0.00359467
1802.14	-0.698242	-0.0167389
1804.48	-0.000762939	0.00634247
1806.8	-0.000158691	0.00359619
1809.14	-0.69812	-0.0167358
1811.48	0.00112305	0.00633301
1813.8	-0.000704956	0.00360321
1816.14	-0.697601	-0.0167267
1818.48	0.000695801	0.00632874
1820.8	0.00129395	0.00359894
1823.14	-0.697937	-0.0167206
1825.48	-0.000332642	0.00633636
1827.8	-0.000457764	0.00360901
1830.14	-0.697906	-0.0167297
1832.48	0.000595093	0.00632385
1834.8	-0.000408936	0.00361511
1837.14	-0.697571	-0.0167267
1839.48	0.000906372	0.00631622
1841.8	0.000650024	0.00360779
1844.14	-0.69754	-0.0167145
1846.48	0.000540161	0.00631134
1848.8	0.000790405	0.00361115
1851.14	-0.697906	-0.0167084
1853.48	0.000973511	0.00632599
1855.8	0.00119324	0.00361359
1858.14	-0.697815	-0.0167572
1860.48	-0.000909424	0.00633514
1862.8	-0.000747681	0.00362427
1865.14	-0.69751	-0.0167694
1867.48	0.00102539	0.00632568
1869.8	-0.000588989	0.00362061
1872.14	-0.699402	-0.0167633
1874.48	-0.000653076	0.00632874
1876.8	-0.000131226	0.00362915
1879.14	-0.699097	-0.0167633
1881.48	-0.000732422	0.006328125
1883.8	0.00104065	0.00362518
1886.14	-0.698547	-0.0167603
1888.48	-0.000125122	0.00632355
1890.8	0.000830078	0.00362854
1893.14	-0.699005	-0.0167542
1895.48	0.000146484	0.00631592
1897.8	0.000527954	0.0036322
1900.14	-0.697754	-0.0167542
1902.48	0.00101013	0.00630951
1904.8	0.000619507	0.00364288
1907.14	-0.697845	-0.0167511
1909.48	-0.000234985	0.00630585
1911.8	-0.000732422	0.00364594
1914.14	-0.698242	-0.016748
1916.48	-0.000750732	0.00631531
1918.8	0.000231934	0.00364349
1921.14	-0.699158	-0.0167328
1923.48	-0.00022583	0.00630585
1925.8	0.00109863	0.00364502
1928.14	-0.698669	-0.0167358
1930.48	-0.000787354	0.00630615
1932.8	0.000817871	0.0036496
1935.14	-0.69931	-0.0167297
1937.48	0.00103149	0.00629364
1939.8	-0.000402832	0.00366089
1942.14	-0.699127	-0.0167328
1944.48	-0.000177002	0.00630096
1946.8	0.0006073	0.00365845
1949.14	-0.698975	-0.0167206
1951.48	-0.000582886	0.006297
1953.8	0.00117798	0.00365692
1956.14	-0.697388	-0.0167175
1958.48	-0.000796509	0.00629547
1960.8	0.000942993	0.0036618
1963.14	-0.699341	-0.0167053
1965.48	0.00102539	0.0062793
1967.8	-7.01904e-05	0.00367584
1970.14	-0.699463	-0.0167053
1972.48	0.000949097	0.00627625
1974.8	-0.000332642	0.00367737
1977.14	-0.69809	-0.0167145
1979.48	-0.000323486	0.00628113
1981.8	0.000445557	0.00367676
1984.14	-0.697906	-0.0167023
1986.48	-0.000613403	0.00627808
1988.8	0.000445557	0.00367462
1991.14	-0.697479	-0.0167053
1993.48	0.0006073	0.0062738
1995.8	-6.40869e-05	0.00368469
1998.14	-0.697601	-0.0166962
2000.48	-0.000445557	0.0062738
2002.8	-0.00067749	0.00369232
2005.14	-0.69873	-0.0167084
2007.48	-0.000891113	0.00627899
2009.8	-0.000601196	0.0036908
2012.14	-0.699432	-0.0166931
2014.48	-0.000848389	0.00627106
2016.8	0.000662231	0.00369293
2019.14	-0.697632	-0.0167084
2021.48	-0.000720215	0.00626953
2023.8	0.000482178	0.00369232
2026.14	-0.69754	-0.0166992
2028.48	0.00107117	0.00625305
2030.8	0.0006073	0.00368988
2033.14	-0.699158	-0.0166962
2035.48	-0.000808716	0.00626068
2037.8	-0.000222778	0.0037027
2040.14	-0.699219	-0.0166901
2042.48	-0.000872803	0.00625488
2044.8	0.000949097	0.00369537
2047.14	-0.69751	-0.016687
2049.48	0.00103455	0.00624237
2051.8	-0.000326538	0.00371094
2054.14	-0.69931	-0.0166748
2056.48	0.000564575	0.00623932
2058.8	0.000442505	0.00370819
2061.14	-0.699341	-0.0166656
2063.48	-0.000790405	0.00624664
2065.8	0.000674438	0.00370758
2068.14	-0.697754	-0.0166718
2070.48	-0.000262451	0.00624268
2072.8	0.000543213	0.00370697
2075.14	-0.697937	-0.0166595
2077.48	0.00071106	0.00623016
2079.8	-0.000372314	0.00371674
2082.14	-0.697571	-0.0166656
2084.48	0.000708008	0.00623444
2086.8	7.32422e-05	0.00371277
2089.14	-0.697662	-0.0166565
2091.48	-0.000411987	0.00623199
2093.8	3.05176e-06	0.00372467
2096.14	-0.698761	-0.0166656
2098.48	-0.000836182	0.00623169
2100.8	-0.000430298	0.00372467
2103.14	-0.697662	-0.0166565
2105.48	0.000692749	0.00621826
2107.8	0.000280762	0.00372406
2110.14	-0.69754	-0.0166626
2112.48	0.000582886	0.00621979
2114.8	0.0011261	0.00372467
2117.14	-0.69812	-0.0166443
2119.48	0.00106812	0.00621216
2121.8	-0.000119019	0.00373871
2124.14	-0.699097	-0.0166534
2126.48	-6.40869e-05	0.00622284
2128.8	-0.000531006	0.00373718
2131.14	-0.697876	-0.0166504
2133.48	0.000323486	0.0062088
2135.8	0.00102539	0.00373627
2138.14	-0.697906	-0.0166473
2140.48	-0.000469971	0.00621033
2142.8	0.000915527	0.00373413
2145.14	-0.69809	-0.0166321
2147.48	0.00017395	0.00620819
2149.8	0.000619507	0.00374329
2152.14	-0.697479	-0.0166321
2154.48	0.000421143	0.00620361
2156.8	0.000579834	0.00373901
2159.14	-0.698029	-0.0166382
2161.48	0.000964355	0.00619415
2163.8	-0.000787354	0.00375397
2166.14	-0.698639	-0.0166168
2168.48	0.00101624	0.00619049
2170.8	-0.000357056	0.00375183
2173.14	-0.699249	-0.0166107
2175.48	-0.00017395	0.00619476
2177.8	0.00107117	0.00374634
2180.14	-0.698761	-0.0166168
2182.48	-0.000924683	0.00619568
2184.8	0.000140381	0.00375793
2187.14	-0.697662	-0.0166138
2189.48	-5.79834e-05	0.00619019
2191.8	-0.000262451	0.00375275
2194.14	-0.698944	-0.0165985
2196.48	0.00105591	0.00618103
2198.8	0.000695801	0.00375885
2201.14	-0.697601	-0.0166077
2203.48	0.000637817	0.00617706
2205.8	0.000341797	0.00376038
2208.14	-0.699127	-0.0166046
2210.48	-0.000720215	0.00618225
2212.8	0.00114746	0.00376007
2215.14	-0.699188	-0.0165924
2217.48	-0.000302124	0.00618195
2219.8	0.00010376	0.00377106
2222.14	-0.699402	-0.0165924
2224.48	-0.000238037	0.00617676
2226.8	0.000579834	0.00377319
2229.14	-0.697601	-0.0165894
2231.48	-0.000396729	0.00616699
2233.8	0.000915527	0.00376892
2236.14	-0.699493	-0.0165741
2238.48	0.00022583	0.00616791
2240.8	-0.000299072	0.00377594
2243.14	-0.699005	-0.0165863
2245.48	0.000192261	0.00615997
2247.8	-7.62939e-05	0.00377563
2250.14	-0.698334	-0.0165741
2252.48	-0.000942993	0.00616516
2254.8	0.0011322	0.00377258
2257.14	-0.698578	-0.0165802
2259.48	-0.000595093	0.00616425
2261.8	-0.000756836	0.00378235
2264.14	-0.69754	-0.0165741
2266.48	0.00112	0.00614929
2268.8	0.000979614	0.00377777
2271.14	-0.69751	-0.016568
2273.48	0.000238037	0.00615204
2275.8	-0.000430298	0.00378723
2278.14	-0.69754	-0.0165894
2280.48	-8.23975e-05	0.00615448
2282.8	-0.000701904	0.00379181
2285.14	-0.699219	-0.0165863
2287.48	-0.000695801	0.00615204
2289.8	-0.000439453	0.00378937
2292.14	-0.699432	-0.0165771
2294.48	3.66211e-05	0.00615204
2296.8	-0.000756836	0.0037912
2299.1	-0.000369263	0.00242737

File: pulses_3000_to_4000.txt
Time (s)	WE(1).Potential (V)	WE(1).Current (A)
2307.91	-0.699219	-0.0192841
2310.25	-0.00083313	0.00591248
2312.57	0.00104675	0.00367615
2314.91	-0.697968	-0.0166626
2317.25	0.00039978	0.00607635
2319.57	0.00088501	0.00374268
2321.91	-0.697845	-0.016629
2324.25	-0.000671387	0.00610107
2326.57	0.00113831	0.00376099
2328.91	-0.699371	-0.0166046
2331.25	0.000540161	0.00611023
2333.57	0.00101624	0.0037796
2335.91	-0.699127	-0.0165833
2338.25	-0.000482178	0.00612244
2340.57	0.000332642	0.00379211
2342.91	-0.698792	-0.0165802
2345.25	-0.000378418	0.00612518
2347.57	0.000549316	0.00379425
2349.91	-0.697693	-0.0165771
2352.25	0.0006073	0.00612488
2354.57	0.000753784	0.00380249
2356.91	-0.699097	-0.0165771
2359.25	0.000479126	0.00612488
2361.57	-0.000387573	0.00381897
2363.91	-0.699554	-0.016571
2366.25	0.000930786	0.00611633
2368.57	0.00109253	0.00380859
2370.91	-0.699432	-0.0165527
2373.25	0.00100708	0.00611755
2375.57	0.000167847	0.00381989
2377.91	-0.69754	-0.0165588
2380.25	0.000143433	0.00612183
2382.57	0.000354004	0.00382294
2384.91	-0.697784	-0.0165649
2387.25	0.00111389	0.00611786
2389.57	-3.35693e-05	0.00382233
2391.91	-0.699158	-0.0165497
2394.25	-0.000326538	0.00611786
2396.57	0.000946045	0.00381989
2398.91	-0.697815	-0.0165405
2401.25	0.000909424	0.00611328
2403.57	0.000402832	0.003828125
2405.91	-0.698547	-0.0165375
2408.25	0.000778198	0.0061084
2410.57	-0.000686646	0.00383728
2412.91	-0.699463	-0.0165375
2415.25	-0.000857544	0.00612061
2417.57	0.000967407	0.00382843
2419.91	-0.698761	-0.0165497
2422.25	0.000378418	0.00610535
2424.57	-3.96729e-05	0.00383667
2426.91	-0.699005	-0.0165344
2429.25	0.000805664	0.00610413
2431.57	-0.000796509	0.00384247
2433.91	-0.699371	-0.0165314
2436.25	-0.000296021	0.0061084
2438.57	0.00103455	0.00383331
2440.91	-0.698181	-0.0165375
2443.25	-0.000515747	0.00610992
2445.57	-0.000439453	0.00384338
2447.91	-0.699432	-0.0165253
2450.25	-0.000759888	0.00611084
2452.57	-0.000848389	0.00384796
2454.91	-0.698364	-0.0165253
2457.25	-0.000961304	0.00610748
2459.57	0.00102234	0.00384186
2461.91	-0.697662	-0.0165375
2464.25	-0.000531006	0.00610779
2466.57	-0.000854492	0.00385376
2468.91	-0.699432	-0.0165253
2471.25	-0.000753784	0.00610352
2473.57	-0.00057373	0.00385651
2475.91	-0.69809	-0.0165344
2478.25	0.00100403	0.00609192
2480.57	-0.000747681	0.00386047
2482.91	-0.69928	-0.0165192
2485.25	-0.000640869	0.00609833
2487.57	0.000411987	0.0038559
2489.91	-0.697754	-0.0165405
2492.25	0.000787354	0.00609314
2494.57	0.000741577	0.00385132
2496.91	-0.697998	-0.0165283
2499.25	-0.00071106	0.00609894
2501.57	-9.76562e-05	0.00386505
2503.91	-0.697662	-0.0165497
2506.25	-0.000915527	0.00609955
2508.57	0.00111084	0.0038562
2510.91	-0.697998	-0.0165527
2513.25	0.000305176	0.00609619
2515.57	-0.000445557	0.00386932
2517.91	-0.697998	-0.0165375
2520.25	-0.000476074	0.00609955
2522.57	-0.000390625	0.00387115
2524.91	-0.699493	-0.0165375
2527.25	-0.000750732	0.00609406
2529.57	0.000283813	0.00386658
2531.91	-0.698822	-0.0165253
2534.25	-0.00038147	0.00609619
2536.57	-0.000793457	0.0038736
2538.91	-0.697784	-0.0165466
2541.25	-0.000274658	0.00609253
2543.57	0.000979614	0.00386871
2545.91	-0.699371	-0.0165283
2548.25	0.0003479	0.00608826
2550.57	-0.000311279	0.00388
2552.91	-0.697571	-0.0165375
2555.25	0.000259399	0.00608154
2557.57	0.000195313	0.00387268
2559.91	-0.697418	-0.0165253
2562.25	-7.01904e-05	0.00607941
2564.57	-0.000637817	0.00388336
2566.91	-0.697754	-0.0165314
2569.25	0.000445557	0.0060791
2571.57	-0.000296021	0.00388153
2573.91	-0.698547	-0.0165375
2576.25	-0.000588989	0.00608917
2578.57	-0.000372314	0.00388641
2580.91	-0.698517	-0.0165314
2583.25	-0.000985718	0.00608459
2585.57	0.000881958	0.00388611
2587.91	-0.697815	-0.0165405
2590.25	-0.000326538	0.00608093
2592.57	0.00116882	0.00388824
2594.91	-0.697357	-0.0165283
2597.25	0.000912476	0.00607452
2599.57	-0.000497437	0.00389679
2601.91	-0.698578	-0.0165283
2604.25	0.000961304	0.00606812
2606.57	-0.000241089	0.00389618
2608.91	-0.697662	-0.0165344
2611.25	-0.000793457	0.0060791
2613.57	0.00110474	0.00388855
2615.91	-0.697479	-0.0165222
2618.25	-4.27246e-05	0.00607635
2620.57	0.0010498	0.0038916
2622.91	-0.697815	-0.0165222
2625.25	0.000430298	0.00606812
2627.57	3.66211e-05	0.00390442
2629.91	-0.698212	-0.0165131
2632.25	0.000982666	0.00606323
2634.57	0.00067749	0.00389954
2636.91	-0.698853	-0.0165161
2639.25	-0.000354004	0.006073
2641.57	0.000738525	0.00389679
2643.91	-0.699036	-0.0165253
2646.25	-0.000579834	0.00607422
2648.57	-0.000708008	0.00391113
2650.91	-0.697601	-0.0165314
2653.25	0.000158691	0.00605957
2655.57	7.62939e-05	0.00391327
2657.91	-0.698456	-0.0165314
2660.25	0.000744629	0.00606384
2662.57	0.000753784	0.00390381
2664.91	-0.699097	-0.01651
2667.25	-0.000857544	0.00606506
2669.57	0.000906372	0.00390747
2671.91	-0.697968	-0.0165314
2674.25	-4.88281e-05	0.00606415
2676.57	0.000762939	0.00390747
2678.91	-0.699127	-0.0165039
2681.25	0.000512695	0.00605347
2683.57	0.000970459	0.00391144
2685.91	-0.697845	-0.0165314
2688.25	0.000241089	0.0060553
2690.57	-0.00078125	0.00392303
2692.91	-0.698975	-0.0165131
2695.25	-0.000656128	0.0060614
2697.57	0.00085144	0.00391266
2699.91	-0.697845	-0.0165222
2702.25	0.000860596	0.00605438
2704.57	0.000619507	0.00391632
2706.91	-0.698792	-0.0165222
2709.25	-0.000415039	0.00605774
2711.57	6.10352e-05	0.0039267
2713.91	-0.698975	-0.01651
2716.25	0.000314331	0.00605103
2718.57	-0.000650024	0.00393127
2720.91	-0.699188	-0.01651
2723.25	0.00038147	0.00604248
2725.57	-0.000262451	0.00392548
2727.91	-0.699402	-0.0165192
2730.25	0.000863647	0.00603729
2732.57	0.000415039	0.003927
2734.91	-0.697418	-0.0165253
2737.25	0.000146484	0.00604431
2739.57	-0.000219727	0.00392395
2741.91	-0.69809	-0.0165131
2744.25	-0.000506592	0.00604584
2746.57	0.000741577	0.00391998
2748.91	-0.699371	-0.016507
2751.25	-0.000793457	0.00604218
2753.57	-0.000546265	0.00393463
2755.91	-0.697632	-0.0165192
2758.25	-0.000793457	0.00603638
2760.57	0.000546265	0.00392548
2762.91	-0.699432	-0.0165131
2765.25	-0.000668335	0.00604248
2767.57	0.000869751	0.00392517
2769.91	-0.698212	-0.0165222
2772.25	-0.000598145	0.00603577
2774.57	0.00107117	0.00393066
2776.91	-0.699432	-0.016507
2779.25	0.000613403	0.00602814
2781.57	-0.000741577	0.00394135
2783.91	-0.698578	-0.0165161
2786.25	-0.000646973	0.00603607
2788.57	-0.000161743	0.0039447
2790.91	-0.699249	-0.0165161
2793.25	0.000302124	0.00602386
2795.57	0.00108032	0.00393463
2797.91	-0.697632	-0.0165131
2800.25	0.000692749	0.00602722
2802.57	-0.000579834	0.0039502
2804.91	-0.697693	-0.016507
2807.25	0.000253296	0.00602112
2809.57	0.000778198	0.00394287
2811.91	-0.697723	-0.0165131
2814.25	8.23975e-05	0.00602203
2816.57	-0.000534058	0.00395081
2818.91	-0.697845	-0.0165161
2821.25	-0.000695801	0.00602631
2823.57	-0.000335693	0.00394806
2825.91	-0.697479	-0.016507
2828.25	-0.000643921	0.00602051
2830.57	0.000912476	0.00394623
2832.91	-0.697906	-0.0165039
2835.25	0.000280762	0.00601929
2837.57	0.000537109	0.00395355
2839.91	-0.698883	-0.01651
2842.25	-0.000579834	0.00602814
2844.57	0.000299072	0.00394958
2846.91	-0.697723	-0.0165039
2849.25	-0.000588989	0.00602081
2851.57	-0.000274658	0.00395935
2853.91	-0.698669	-0.0165039
2856.25	0.00101318	0.00601105
2858.57	0.00107727	0.00394989
2860.91	-0.699249	-0.0164917
2863.25	-0.000540161	0.00601685
2865.57	5.49316e-05	0.00396118
2867.92	-0.699066	-0.0164856
2870.26	0.00100708	0.00600464
2872.58	-0.000738525	0.00396454
2874.92	-0.697388	-0.0164948
2877.26	-0.000744629	0.00601044
2879.58	-0.000689697	0.00396759
2881.92	-0.697937	-0.0165009
2884.26	0.000814819	0.00600739
2886.58	-0.000546265	0.00395996
2888.92	-0.697693	-0.0165009
2891.26	0.000268555	0.00600708
2893.58	-0.000747681	0.00396881
2895.92	-0.697693	-0.0164978
2898.26	0.000872803	0.00599884
2900.58	-0.00022583	0.00396423
2902.92	-0.698975	-0.0164795
2905.26	0.00062561	0.00599792
2907.58	-3.05176e-06	0.00396912
2909.92	-0.69754	-0.0164917
2912.26	-0.000204468	0.0060083
2914.58	-0.000534058	0.00397064
2916.92	-0.698639	-0.0164886
2919.26	-0.00010376	0.00599976
2921.58	0.000183105	0.00397339
2923.92	-0.698547	-0.0164642
2926.26	0.000732422	0.00598755
2928.58	-0.000109863	0.003974
2930.92	-0.698212	-0.0164673
2933.26	-0.000344849	0.00599854
2935.58	0.000796509	0.00396393
2937.92	-0.69754	-0.0164764
2940.26	0.000531006	0.00598755
2942.58	-0.000643921	0.00397888
2944.92	-0.6987	-0.0164703
2947.26	0.000799561	0.0059848
2949.58	-0.000476074	0.00397766
2951.92	-0.699066	-0.0164673
2954.26	0.00022583	0.00599213
2956.58	0.000894165	0.00397156
2958.92	-0.697601	-0.0164795
2961.26	-0.000827026	0.00599609
2963.58	0.000769043	0.00397552
2965.92	-0.69751	-0.0164825
2968.26	8.23975e-05	0.00598633
2970.58	8.23975e-05	0.00398621
2972.92	-0.698517	-0.0164642
2975.26	0.000463867	0.00599274
2977.58	-0.00078125	0.00398773
2979.92	-0.69754	-0.0164795
2982.26	-0.000769043	0.00599304
2984.58	-0.000430298	0.00399261
2986.92	-0.699341	-0.0164734
2989.26	0.000814819	0.00598175
2991.58	-0.000125122	0.00398651
2993.92	-0.697968	-0.0164734
2996.26	0.00106201	0.00597931
2998.58	-0.000692749	0.00399445
3000.92	-0.698517	-0.0164703
3003.26	0.00015564	0.00598083
3005.58	-0.000546265	0.00399628
3007.88	0.000418091	0.00278809