Folder: electrochromicfilms/Edgar/20240607/20240607/electrodeposition_pulsed_potential_20240607_F

File: OCP_1
Time (s)	WE(1).Potential (V)
2.03922	0.517273
3.03922	0.517578
4.03922	0.517883
5.03922	0.518494
6.03922	0.518799
7.03922	0.519104
8.03922	0.519714
9.03922	0.52002
10.0392	0.520325
11.0392	0.52063
12.0392	0.520935
13.0392	0.52124
14.0392	0.521545
15.0392	0.521851
16.0392	0.522156
17.0392	0.522461
18.0392	0.522766
19.0392	0.523071
20.0392	0.523376
21.0392	0.523376
22.0392	0.523682
23.0392	0.523682
24.0392	0.523987
25.0392	0.523682
26.0392	0.523376
27.0392	0.522766
28.0392	0.522156
29.0392	0.521851
30.0392	0.521545
31.0392	0.52124
32.0392	0.52124
33.0392	0.520935
34.0392	0.52063
35.0392	0.52002
36.0392	0.518799
37.0392	0.517273
38.0392	0.515747
39.0392	0.513611
40.0392	0.51178
41.0392	0.509338
42.0392	0.5078125
43.0392	0.506287
44.0392	0.504761
45.0392	0.504761
46.0392	0.505371
47.0392	0.505981
48.0392	0.506592
49.0392	0.507202
50.0392	0.5078125
51.0392	0.508423
52.0392	0.509033
53.0392	0.509644
54.0392	0.509949
55.0392	0.510559
56.0392	0.510864
57.0392	0.511475
58.0392	0.512085
59.0392	0.51239
60.0392	0.512695
61.0392	0.513306
62.0392	0.513611
63.0392	0.514221
64.0392	0.514526
65.0392	0.515137
66.0392	0.515747
67.0392	0.516052
68.0392	0.516357
69.0392	0.516968
70.0392	0.517273
71.0392	0.517883
72.0392	0.518188
73.0392	0.518494
74.0392	0.518799
75.0392	0.519409
76.0392	0.519714
77.0392	0.520325
78.0392	0.52063
79.0392	0.520935
80.0392	0.52124
81.0392	0.521851
82.0392	0.522156
83.0392	0.522461
84.0392	0.522766
85.0392	0.523071
86.0392	0.523376
87.0392	0.523682
88.0392	0.524292
89.0392	0.524597
90.0392	0.524902
91.0392	0.525208
92.0392	0.525513
93.0392	0.525818
94.0392	0.526123
95.0392	0.526733
96.0392	0.527039
97.0392	0.527344
98.0392	0.527649
99.0392	0.527954
100.039	0.528259
101.039	0.528564
102.039	0.52887
103.039	0.529175
104.039	0.52948
105.039	0.53009
106.039	0.530396
107.039	0.530701
108.039	0.531006
109.039	0.531311
110.039	0.531616
111.039	0.531616
112.039	0.531921
113.039	0.532227
114.039	0.532532
115.039	0.532837
116.039	0.533142
117.039	0.533447
118.039	0.533752
119.039	0.534058
120.039	0.534363
121.039	0.534668
122.039	0.534973
123.039	0.535278
124.039	0.535583
125.039	0.535583
126.039	0.535889
127.039	0.536194
128.039	0.536499
129.039	0.536804
130.039	0.537109
131.039	0.537109
132.039	0.537415
133.039	0.53772
134.039	0.53772
135.039	0.53833
136.039	0.53833
137.039	0.538635
138.039	0.53894
139.039	0.539246
140.039	0.539551
141.039	0.539551
142.039	0.539856
143.039	0.540161
144.039	0.540466
145.039	0.540771
146.039	0.540771
147.039	0.541077
148.039	0.541382
149.039	0.541687
150.039	0.541687
151.039	0.541992
152.039	0.542297
153.039	0.542297
154.039	0.542603
155.039	0.542908
156.039	0.543213
157.039	0.543213
158.039	0.543518
159.039	0.543823
160.039	0.543823
161.039	0.544128
162.039	0.544434
163.039	0.544739
164.039	0.544739
165.039	0.545044
166.039	0.545349
167.039	0.545349
168.039	0.545654
169.039	0.545959
170.039	0.545959
171.039	0.546265
172.039	0.546265
173.039	0.54657
174.039	0.546875
175.039	0.54718
176.039	0.54718
177.039	0.547485
178.039	0.547791
179.039	0.547791
180.039	0.548096
181.039	0.548096

File: OCP_3
Time (s)	WE(1).Potential (V)
3017.12	0.039032
3018.12	0.0575256
3019.12	0.0740356
3020.12	0.0891418
3021.12	0.102997
3022.12	0.115723
3023.12	0.12738
3024.12	0.138245
3025.12	0.148285
3026.12	0.157562
3027.12	0.166168
3028.12	0.174194
3029.12	0.181641
3030.12	0.188538
3031.12	0.195099
3032.12	0.201233
3033.12	0.20694
3034.12	0.212341
3035.12	0.217438
3036.12	0.222321
3037.12	0.226929
3038.12	0.231354
3039.12	0.235535
3040.12	0.239532
3041.12	0.243347
3042.12	0.247101
3043.12	0.250763
3044.12	0.254333
3045.12	0.25769
3046.12	0.260956
3047.12	0.264191
3048.12	0.267365
3049.12	0.270447
3050.12	0.273468
3051.12	0.276489
3052.12	0.27948
3053.12	0.28244
3054.12	0.285339
3055.12	0.288239
3056.12	0.291107
3057.12	0.293976
3058.12	0.296814
3059.12	0.299683
3060.12	0.302582
3061.12	0.305481
3062.12	0.30838
3063.12	0.311279
3064.12	0.314301
3065.12	0.317322
3066.12	0.320343
3067.12	0.323456
3068.12	0.326752
3069.12	0.329987
3070.12	0.333374
3071.12	0.336884
3072.12	0.340454
3073.12	0.344086
3074.12	0.347778
3075.12	0.3515625
3076.12	0.355377
3077.12	0.359161
3078.12	0.36319
3079.12	0.367493
3080.12	0.371643
3081.12	0.375824
3082.12	0.380096
3083.12	0.384308
3084.12	0.38855
3085.12	0.392792
3086.12	0.397003
3087.12	0.401184
3088.12	0.405396
3089.12	0.409637
3090.12	0.413788
3091.12	0.417908
3092.12	0.422028
3093.12	0.426208
3094.12	0.430359
3095.12	0.434479
3096.12	0.438599
3097.12	0.44281
3098.12	0.447021
3099.12	0.451294
3100.12	0.455597
3101.12	0.4599
3102.12	0.464264
3103.12	0.468658
3104.12	0.473083
3105.12	0.477509
3106.12	0.481964
3107.12	0.486481
3108.12	0.490997
3109.12	0.495483
3110.12	0.500183
3111.12	0.504761
3112.12	0.509033
3113.12	0.513611
3114.12	0.517883
3115.12	0.522461
3116.12	0.526733
3117.12	0.530701
3118.12	0.534668
3119.12	0.538635
3120.12	0.542297
3121.12	0.545654
3122.12	0.548706
3123.12	0.552063
3124.12	0.55481
3125.12	0.557556
3126.12	0.560303
3127.12	0.562439
3128.12	0.56488
3129.12	0.567017
3130.12	0.568848
3131.12	0.570679
3132.12	0.57251
3133.12	0.574036
3134.12	0.575256
3135.12	0.576782
3136.12	0.578003
3137.12	0.579224
3138.12	0.580444
3139.12	0.581665
3140.12	0.582581
3141.12	0.583496
3142.12	0.584412
3143.12	0.585327
3144.12	0.586243
3145.12	0.586853
3146.12	0.587769
3147.12	0.588379
3148.12	0.588989
3149.12	0.5896
3150.12	0.59021
3151.12	0.59082
3152.12	0.591125
3153.12	0.591736
3154.12	0.592346
3155.12	0.592957
3156.12	0.593262
3157.12	0.593567
3158.12	0.593872
3159.12	0.594482
3160.12	0.594788
3161.12	0.595093
3162.12	0.595398
3163.12	0.595703
3164.12	0.596008
3165.12	0.596313
3166.12	0.596619
3167.12	0.597229
3168.12	0.597229
3169.12	0.597534
3170.12	0.597839
3171.12	0.598145
3172.12	0.598145
3173.12	0.59845
3174.12	0.598755
3175.12	0.598755
3176.12	0.59906
3177.12	0.599365
3178.12	0.599365
3179.12	0.59967
3180.12	0.599976
3181.12	0.599976
3182.12	0.600281
3183.12	0.600586
3184.12	0.600586
3185.12	0.600891
3186.12	0.600891
3187.12	0.601196
3188.12	0.601196
3189.12	0.601501
3190.12	0.601501
3191.12	0.601807
3192.12	0.602417
3193.12	0.602417
3194.12	0.602722
3195.12	0.603027
3196.12	0.603333

File: pulses_0_to_1000.txt
Time (s)	WE(1).Potential (V)	WE(1).Current (A)
181.614	-0.698364	-0.00382904
183.954	-0.000671387	0.000159119
186.274	0.000506592	1.25122e-06
188.614	-0.698364	-0.00805359
190.954	-3.05176e-06	0.000460571
193.274	0.000616455	-0.000150757
195.614	-0.699463	-0.0106842
197.954	-8.23975e-05	0.00212372
200.274	0.000973511	-0.000199158
202.614	-0.697968	-0.0122375
204.954	6.10352e-05	0.00390015
207.274	-0.000271606	-0.000204041
209.614	-0.698517	-0.0132599
211.954	0.00012207	0.00504333
214.274	0.000949097	-0.00020639
216.614	-0.699341	-0.0139496
218.954	-0.000695801	0.00579163
221.274	0.000982666	-0.000189758
223.614	-0.699463	-0.0144592
225.954	-5.49316e-05	0.00631012
228.274	-0.000326538	-0.000161041
230.614	-0.698761	-0.014859
232.954	-0.000357056	0.00671326
235.274	-0.000588989	-0.00013327
237.614	-0.697998	-0.01521
239.954	0.000827026	0.00701233
242.274	0.000708008	-0.000114868
244.614	-0.697937	-0.0154999
246.954	-0.000714111	0.00727173
249.274	0.000775146	-8.68225e-05
251.614	-0.697968	-0.015744
253.954	-0.000222778	0.00746857
256.274	-0.000588989	-4.22058e-05
258.614	-0.698425	-0.015976
260.954	0.000692749	0.00762634
263.274	0.000732422	-1.42517e-05
265.614	-0.699402	-0.0161682
267.954	-0.00017395	0.00775452
270.274	4.88281e-05	3.1311e-05
272.614	-0.699066	-0.0163483
274.954	-0.000753784	0.00788269
277.274	0.000143433	7.6355e-05
279.614	-0.698029	-0.0165344
281.954	-0.000543213	0.0079834
284.274	-0.000643921	0.000130219
286.614	-0.698914	-0.016684
288.954	-0.000814819	0.00808105
291.274	0.000314331	0.000172668
293.614	-0.697662	-0.0168274
295.954	-0.000918579	0.0081665
298.274	0.000610352	0.000222992
300.614	-0.699188	-0.0169464
302.954	-0.000619507	0.00823364
305.274	0.000842285	0.000272095
307.614	-0.698883	-0.0170837
309.954	0.000827026	0.00828857
312.274	-0.000430298	0.000340668
314.614	-0.69928	-0.0171844
316.954	-0.000265503	0.0083374
319.274	-0.000485229	0.000395264
321.614	-0.698975	-0.0172882
323.954	0.000476074	0.00839539
326.274	0.00112305	0.000444672
328.614	-0.699402	-0.017395
330.954	0.000106812	0.00843811
333.274	-0.000476074	0.000509338
335.614	-0.698914	-0.0174805
337.954	0.000119019	0.00846863
340.274	0.0009765625	0.000562744
342.614	-0.698944	-0.0175842
344.954	4.57764e-05	0.00848694
347.274	0.000738525	0.000622864
349.614	-0.698395	-0.0176605
351.954	0.0003479	0.00850525
354.274	-0.000488281	0.000690918
356.614	-0.697601	-0.0177277
358.954	0.000567627	0.00852661
361.274	0.00107727	0.000740967
363.614	-0.699127	-0.0177856
365.954	-0.000906372	0.00855103
368.274	-7.62939e-05	0.000805664
370.614	-0.699249	-0.0178497
372.954	0.000665283	0.00856018
375.274	0.000982666	0.000858459
377.614	-0.697937	-0.0179199
379.954	-0.000415039	0.00858154
382.274	-0.00038147	0.000922546
384.614	-0.697662	-0.017981
386.954	-0.000875854	0.00858765
389.274	0.000427246	0.0009765625
391.614	-0.697632	-0.018042
393.954	-0.000872803	0.00858765
396.274	0.00104065	0.001026
398.614	-0.699066	-0.0180725
400.954	0.000698853	0.0085968
403.274	-0.000561523	0.00109375
405.614	-0.697388	-0.0181396
407.954	-0.000726318	0.00859375
410.274	0.000598145	0.00113953
412.614	-0.697601	-0.0181763
414.954	0.00078125	0.00859375
417.274	-0.00062561	0.00119537
419.614	-0.698883	-0.0182312
421.954	0.00045166	0.00859375
424.274	0.00115662	0.00124176
426.614	-0.697632	-0.01828
428.954	-0.000784302	0.00860596
431.274	0.000933838	0.00130005
433.614	-0.698822	-0.0182983
435.954	0.000717163	0.0085907
438.274	-0.000534058	0.00135193
440.614	-0.697601	-0.0183533
442.954	-0.000152588	0.00858154
445.274	9.15527e-06	0.00140259
447.614	-0.699249	-0.0183746
449.954	-0.000787354	0.00858765
452.274	0.000396729	0.00144379
454.614	-0.69873	-0.018399
456.954	-1.2207e-05	0.00858154
459.274	0.00055542	0.00149139
461.614	-0.69928	-0.0184326
463.954	-0.00055542	0.00857239
466.274	0.000253296	0.00154236
468.614	-0.697601	-0.0184631
470.954	-0.000302124	0.00855408
473.274	0.000805664	0.00158356
475.614	-0.698059	-0.0184814
477.954	-0.000949097	0.00855103
480.274	-0.000128174	0.001633
482.614	-0.699188	-0.0185059
484.954	-0.000656128	0.00854797
487.274	0.000939941	0.00167328
489.614	-0.69754	-0.0185425
491.954	-0.000888062	0.00853271
494.274	-0.000299072	0.0017218
496.614	-0.697754	-0.0185486
498.954	-0.000650024	0.00853271
501.274	0.000952148	0.00176056
503.614	-0.699371	-0.0185791
505.954	0.000491333	0.00850525
508.274	0.00093689	0.00180389
510.614	-0.697662	-0.0186096
512.954	-0.000634766	0.0085022
515.274	0.000146484	0.00184753
517.614	-0.69809	-0.0186279
519.954	-0.000228882	0.0085022
522.274	-0.000549316	0.00188751
524.614	-0.698914	-0.018634
526.954	0.000140381	0.00846863
529.274	-0.000421143	0.00192352
531.614	-0.699158	-0.0186493
533.954	0.000820923	0.00845642
536.274	-0.000613403	0.00196472
538.614	-0.697571	-0.0186676
540.954	-0.000640869	0.00846252
543.274	-0.000604248	0.00200287
545.614	-0.697906	-0.0186859
547.954	-0.00062561	0.00843201
550.274	-0.000546265	0.00204102
552.614	-0.699097	-0.0186829
554.954	-0.000149536	0.0084137
557.274	-0.000531006	0.00207367
559.614	-0.697662	-0.0187073
561.954	0.000384521	0.00840454
564.274	-0.000390625	0.00211243
566.614	-0.69812	-0.0187195
568.954	-0.000497437	0.00839539
571.274	0.00106812	0.00213135
573.614	-0.698334	-0.0187195
575.954	-0.000875854	0.00838928
578.274	0.000973511	0.00217163
580.614	-0.698395	-0.0187317
582.954	0.000561523	0.00836792
585.274	0.000994873	0.00219971
587.614	-0.699066	-0.0187317
589.954	-0.000375366	0.00835266
592.274	0.000695801	0.00223267
594.614	-0.697571	-0.0187531
596.954	0.000671387	0.00835266
599.274	-0.000668335	0.00227417
601.614	-0.699188	-0.0187469
603.954	6.40869e-05	0.0083252
606.274	-0.00062561	0.00230652
608.614	-0.698792	-0.0187469
610.954	0.000747681	0.0083313
613.274	0.000906372	0.00232513
615.614	-0.699341	-0.0187592
617.954	-1.83105e-05	0.00830078
620.274	0.000775146	0.00236176
622.614	-0.699005	-0.0187592
624.954	-0.000167847	0.00828247
627.274	0.00113525	0.00238556
629.614	-0.698853	-0.0187683
631.954	0.000628662	0.00827026
634.274	-0.000454712	0.00242432
636.614	-0.699249	-0.0187683
638.954	-9.46045e-05	0.00827026
641.274	0.00102844	0.00244141
643.614	-0.699127	-0.0187653
645.954	0.000494385	0.008255
648.275	-0.000588989	0.00247681
650.615	-0.699066	-0.0187744
652.955	0.000213623	0.00823669
655.275	0.000967407	0.00249359
657.615	-0.697571	-0.0187866
659.955	-0.000540161	0.00821838
662.275	-0.000552368	0.00253021
664.615	-0.69751	-0.0187805
666.955	-0.000549316	0.00821533
669.275	0.00083313	0.00255188
671.615	-0.697479	-0.0187958
673.955	-0.000650024	0.00821533
676.275	-0.00043335	0.00257568
678.615	-0.698639	-0.0187836
680.955	0.000585937	0.00818481
683.275	0.000637817	0.00260193
685.615	-0.697449	-0.0188019
687.955	-0.000192261	0.00817566
690.275	0.000619507	0.00262238
692.615	-0.697479	-0.0187988
694.955	0.000662231	0.00816956
697.275	0.000668335	0.00265015
699.615	-0.697449	-0.0188019
701.955	0.000680542	0.00814514
704.275	0.000506592	0.00267487
706.615	-0.698364	-0.0187927
708.955	-0.000714111	0.00815125
711.275	-0.000521851	0.00270111
713.615	-0.69928	-0.0187866
715.955	0.000714111	0.00811157
718.275	-0.000582886	0.00272675
720.615	-0.697906	-0.0187744
722.955	-0.000610352	0.00809937
725.275	0.000274658	0.00274475
727.615	-0.698761	-0.0187592
729.955	-2.13623e-05	0.008078
732.275	-0.000405884	0.00276794
734.615	-0.697479	-0.0187622
736.955	0.000201416	0.00805969
739.275	-0.000656128	0.00278595
741.615	-0.697479	-0.0187622
743.955	0.000769043	0.00805054
746.275	-0.000546265	0.00280731
748.615	-0.699188	-0.0187439
750.955	0.000698853	0.00803833
753.275	0.000714111	0.0028125
755.615	-0.697784	-0.0187317
757.955	0.000823975	0.00801086
760.275	-0.000585937	0.00284332
762.615	-0.69873	-0.0187195
764.955	-0.000106812	0.00799561
767.275	0.000189209	0.00286102
769.615	-0.699127	-0.0187195
771.955	-0.000439453	0.0079895
774.275	0.00088501	0.00287323
776.615	-0.69754	-0.0187347
778.955	0.000622559	0.00797119
781.275	-0.000704956	0.00290222
783.615	-0.699249	-0.0187164
785.955	-0.000888062	0.00797424
788.275	0.000656128	0.00290985
790.615	-0.69751	-0.0187195
792.955	-0.000253296	0.00796509
795.275	-0.000604248	0.00293823
797.615	-0.697479	-0.0187195
799.955	0.000402832	0.00795593
802.275	0.000750732	0.00294769
804.615	-0.698151	-0.0187225
806.955	-0.000698853	0.00794373
809.275	-0.000787354	0.00297394
811.615	-0.69931	-0.0187073
813.955	-0.000723267	0.00792847
816.275	0.000656128	0.00298431
818.615	-0.698181	-0.0187103
820.955	0.000802612	0.0079071
823.275	0.000970459	0.00299866
825.615	-0.698364	-0.018692
827.955	0.00010376	0.00788574
830.275	-7.01904e-05	0.00302155
832.615	-0.697571	-0.0186951
834.955	-0.000869751	0.00788269
837.275	0.000912476	0.00303192
839.615	-0.697357	-0.018692
841.955	0.000802612	0.00787354
844.275	0.000982666	0.00304535
846.615	-0.698456	-0.0186768
848.955	-0.000125122	0.00787048
851.275	0.000952148	0.00305817
853.615	-0.69751	-0.018689
855.955	1.2207e-05	0.00785828
858.275	0.000921631	0.00307526
860.615	-0.697723	-0.0186768
862.955	-0.00045166	0.00783386
865.275	0.0010376	0.00309143
867.615	-0.699066	-0.0186646
869.955	-0.00088501	0.00782471
872.275	-7.32422e-05	0.00310883
874.615	-0.697815	-0.0186676
876.955	-0.000747681	0.00782471
879.275	0.000848389	0.00312103
881.575	0.000473022	0.00108337

File: pulses_1000_to_2000.txt
Time (s)	WE(1).Potential (V)	WE(1).Current (A)
890.134	-0.698944	-0.0200287
892.474	0.000183105	0.00758972
894.794	0.000927734	0.00299988
897.134	-0.697693	-0.0187408
899.474	-0.000445557	0.00772705
901.794	-0.00032959	0.00309235
904.134	-0.697754	-0.018689
906.474	-0.000881958	0.00774841
908.794	0.000979614	0.00312683
911.134	-0.699036	-0.0186676
913.474	0.000411987	0.00774231
915.794	0.000939941	0.00315887
918.134	-0.699036	-0.0186646
920.474	0.000463867	0.00775452
922.794	0.00101929	0.00318024
925.134	-0.69812	-0.0186707
927.474	-0.00090332	0.00775452
929.794	0.00116882	0.00320099
932.134	-0.69751	-0.0186523
934.474	-0.000714111	0.00775146
936.794	0.00100403	0.00321747
939.134	-0.698975	-0.018634
941.474	-0.000393677	0.00774231
943.794	0.000390625	0.00323395
946.134	-0.697632	-0.0186462
948.474	0.000784302	0.00772705
950.794	0.000973511	0.00324677
953.134	-0.69751	-0.018634
955.474	-0.00071106	0.00772705
957.794	0.000866699	0.00326385
960.134	-0.698944	-0.0186127
962.474	-0.000405884	0.0077179
964.794	-0.000613403	0.00328156
967.134	-0.698853	-0.0186188
969.474	-0.000201416	0.00771179
971.794	0.00100098	0.00328308
974.134	-0.698822	-0.0186096
976.474	-0.000463867	0.00769348
978.794	-0.000598145	0.00330292
981.134	-0.699005	-0.0186035
983.474	0.000500488	0.00767517
985.794	-0.000369263	0.00331696
988.134	-0.698761	-0.0186127
990.474	-0.00065918	0.00768433
992.794	0.000213623	0.00331726
995.134	-0.698242	-0.0186188
997.474	0.000216675	0.00765381
999.794	-0.000500488	0.00333496
1002.13	-0.698944	-0.0186035
1004.47	-0.000772095	0.00765076
1006.79	-0.000674438	0.00334717
1009.13	-0.699036	-0.0186432
1011.47	0.000366211	0.00765991
1013.79	0.000665283	0.00334473
1016.13	-0.697693	-0.0186554
1018.47	0.000479126	0.00766296
1020.79	0.000875854	0.00335297
1023.13	-0.69928	-0.0186523
1025.47	-0.000808716	0.00765686
1027.79	-0.000518799	0.0033783
1030.13	-0.697479	-0.0186584
1032.47	0.000198364	0.0076416
1034.79	0.000283813	0.00337769
1037.13	-0.698792	-0.0186462
1039.47	0.000759888	0.00763245
1041.79	-0.000393677	0.00339539
1044.13	-0.699005	-0.0186584
1046.47	-0.00090332	0.00762634
1048.79	-0.000772095	0.00340057
1051.13	-0.698822	-0.0186462
1053.47	0.000350952	0.00761108
1055.79	0.00093689	0.00340729
1058.13	-0.697906	-0.0186401
1060.47	-0.000872803	0.00762024
1062.79	-0.000582886	0.00342468
1065.13	-0.697662	-0.0186401
1067.47	4.27246e-05	0.00759583
1069.79	-0.000411987	0.00343292
1072.13	-0.699219	-0.0186188
1074.47	0.000698853	0.00758972
1076.79	0.000213623	0.00343811
1079.13	-0.699402	-0.0186096
1081.47	0.000405884	0.00758057
1083.79	0.00109253	0.00344574
1086.13	-0.697693	-0.0186127
1088.47	-0.000805664	0.00758362
1090.79	-0.000601196	0.00346558
1093.13	-0.697571	-0.0186035
1095.47	3.05176e-06	0.00756226
1097.79	0.00102539	0.00346588
1100.13	-0.698151	-0.0185944
1102.47	0.000964355	0.00756226
1104.79	0.000759888	0.00347626
1107.13	-0.699249	-0.0185822
1109.47	-0.000186157	0.007547
1111.79	-0.000732422	0.00349579
1114.13	-0.698303	-0.0185791
1116.47	-0.000268555	0.00754089
1118.79	-0.000726318	0.00350586
1121.13	-0.699188	-0.018573
1123.47	-0.000830078	0.00754089
1125.79	0.000143433	0.00350952
1128.13	-0.698029	-0.0185699
1130.47	-0.000360107	0.00752258
1132.79	0.000796509	0.00351746
1135.13	-0.699249	-0.0185608
1137.47	0.000439453	0.00751038
1139.79	0.000689697	0.00352936
1142.13	-0.698578	-0.0185516
1144.47	0.00071106	0.00751343
1146.79	0.000460815	0.00353607
1149.13	-0.697754	-0.0185638
1151.47	0.000283813	0.00751038
1153.79	6.10352e-06	0.00354828
1156.13	-0.699249	-0.0185364
1158.47	-0.000430298	0.00750336
1160.79	-0.00062561	0.00355682
1163.13	-0.698242	-0.0185364
1165.47	0.000787354	0.00748199
1167.79	0.000247192	0.00355621
1170.13	-0.697601	-0.0185455
1172.47	0.00022583	0.00747559
1174.79	0.000790405	0.00356323
1177.13	-0.698914	-0.0185211
1179.47	0.000524902	0.00747009
1181.79	-0.000567627	0.00358276
1184.13	-0.697998	-0.0185394
1186.47	-8.23975e-05	0.00746338
1188.79	0.000949097	0.00358582
1191.13	-0.698273	-0.018515
1193.47	0.000234985	0.00745422
1195.79	0.000177002	0.00359253
1198.13	-0.69754	-0.0185211
1200.47	0.000924683	0.0074469
1202.79	0.000735474	0.00359589
1205.13	-0.697937	-0.0185059
1207.47	0.000213623	0.00744781
1209.79	0.000778198	0.00360413
1212.13	-0.697479	-0.0185089
1214.47	0.000128174	0.00743866
1216.79	0.000723267	0.00361115
1219.13	-0.697693	-0.0185059
1221.47	-0.000595093	0.00743469
1223.79	0.000650024	0.00361938
1226.13	-0.698456	-0.0184998
1228.47	-0.000143433	0.00742828
1230.79	-0.000463867	0.00363342
1233.13	-0.697449	-0.0184845
1235.47	-0.000582886	0.0074173
1237.79	0.000488281	0.00363129
1240.13	-0.697784	-0.0184875
1242.47	0.000518799	0.00740204
1244.79	-0.000515747	0.00364838
1247.13	-0.697479	-0.0184814
1249.47	0.00083313	0.00739746
1251.79	-0.000296021	0.00365845
1254.13	-0.698029	-0.0184601
1256.47	0.000891113	0.00738953
1258.79	0.000613403	0.00366394
1261.13	-0.698151	-0.0184601
1263.47	-0.000494385	0.00738922
1265.79	-0.000415039	0.00367493
1268.13	-0.69873	-0.0184601
1270.47	3.96729e-05	0.00737549
1272.79	0.000927734	0.00367065
1275.13	-0.69928	-0.0184509
1277.47	0.000509644	0.00737274
1279.79	0.00100708	0.00367676
1282.13	-0.697998	-0.018454
1284.47	-0.000509644	0.00736908
1286.79	0.000274658	0.00368835
1289.13	-0.698029	-0.0184387
1291.47	0.000512695	0.00735687
1293.79	0.00065918	0.00369659
1296.13	-0.697601	-0.0184418
1298.47	0.000198364	0.00735992
1300.79	0.00109253	0.00370331
1303.13	-0.698151	-0.0184174
1305.47	0.000723267	0.00734161
1307.79	-0.000131226	0.0037149
1310.13	-0.698822	-0.0184174
1312.47	0.000283813	0.00733673
1314.79	0.000967407	0.00371399
1317.13	-0.697571	-0.0184204
1319.47	0.000570679	0.00733795
1321.79	-0.000341797	0.00371826
1324.13	-0.698425	-0.0184265
1326.47	0.000918579	0.0073172
1328.79	0.000906372	0.00372131
1331.13	-0.698669	-0.0184143
1333.47	0.000778198	0.00731537
1335.79	-0.000634766	0.00373474
1338.13	-0.698975	-0.0184082
1340.47	-0.000802612	0.00731354
1342.79	0.000418091	0.00373535
1345.13	-0.697754	-0.0184082
1347.47	0.00072937	0.00730499
1349.79	-0.000439453	0.00374451
1352.13	-0.698853	-0.0183899
1354.47	0.000442505	0.00729675
1356.79	0.000369263	0.00375153
1359.13	-0.698517	-0.0183899
1361.47	-0.000326538	0.00730316
1363.79	7.32422e-05	0.00376282
1366.13	-0.697693	-0.0183868
1368.47	-0.000445557	0.00729279
1370.79	0.000231934	0.00377106
1373.13	-0.697968	-0.0183899
1375.47	0.000463867	0.00728668
1377.79	-5.18799e-05	0.00377258
1380.13	-0.699005	-0.0183746
1382.47	-0.000488281	0.00728424
1384.79	-0.000485229	0.00378448
1387.13	-0.698883	-0.0183685
1389.47	0.000842285	0.00726746
1391.79	0.000686646	0.00377869
1394.13	-0.6987	-0.0183563
1396.47	-6.10352e-05	0.00726807
1398.79	0.000561523	0.0037854
1401.13	-0.697906	-0.0183746
1403.47	0.000720215	0.00725922
1405.79	-0.000460815	0.00380127
1408.13	-0.697906	-0.0183563
1410.47	0.000119019	0.0072522
1412.79	0.000671387	0.00380249
1415.13	-0.698151	-0.0183594
1417.47	-0.000631714	0.00725342
1419.79	0.000964355	0.00380829
1422.13	-0.6987	-0.0183441
1424.47	-0.000518799	0.00724609
1426.79	-0.000442505	0.00381958
1429.13	-0.69873	-0.0183258
1431.47	0.000906372	0.00723328
1433.79	-0.000576782	0.00382629
1436.13	-0.699127	-0.0183167
1438.47	0.000662231	0.00722595
1440.79	-0.000582886	0.00383667
1443.13	-0.697937	-0.0183167
1445.47	0.000350952	0.00722778
1447.79	7.62939e-05	0.00383606
1450.13	-0.697937	-0.0183411
1452.47	-0.000653076	0.00723694
1454.79	-0.00015564	0.00383881
1457.13	-0.699249	-0.0183197
1459.47	-0.000674438	0.00722626
1461.79	0.000320435	0.00383942
1464.13	-0.697449	-0.0183197
1466.47	-9.76562e-05	0.00722076
1468.79	0.000341797	0.00384918
1471.13	-0.698212	-0.0183167
1473.47	-0.000213623	0.0072168
1475.79	-0.000286865	0.00385742
1478.13	-0.697601	-0.0183167
1480.47	-0.000268555	0.00720215
1482.79	0.000241089	0.00385651
1485.13	-0.697327	-0.0183044
1487.47	-0.000268555	0.0071994
1489.79	-0.00055542	0.00387177
1492.13	-0.697632	-0.0182953
1494.47	0.000708008	0.00719177
1496.79	0.000985718	0.00386353
1499.13	-0.699066	-0.0182922
1501.47	0.000894165	0.00718231
1503.79	-0.000375366	0.00388
1506.13	-0.69812	-0.0182953
1508.47	0.000152588	0.00718445
1510.79	0.00112	0.00387482
1513.13	-0.699249	-0.018277
1515.47	-0.000756836	0.00718231
1517.79	0.000628662	0.00388397
1520.13	-0.699036	-0.0182678
1522.47	-0.000784302	0.00717712
1524.79	-0.000628662	0.0038913
1527.13	-0.699249	-0.0182831
1529.47	0.000912476	0.00715637
1531.79	0.00109558	0.00388611
1534.13	-0.699219	-0.0182678
1536.47	0.000946045	0.00715088
1538.79	0.000463867	0.00388855
1541.13	-0.698425	-0.0182617
1543.47	0.000701904	0.00714905
1545.79	0.000720215	0.00389435
1548.13	-0.697479	-0.0182526
1550.47	-0.000582886	0.00715088
1552.79	0.00104675	0.00389984
1555.13	-0.698975	-0.0182465
1557.47	-0.000280762	0.0071405
1559.79	-0.00045166	0.00391571
1562.13	-0.698212	-0.0182495
1564.47	0.000372314	0.00713135
1566.79	0.000924683	0.00390961
1569.13	-0.697601	-0.0182434
1571.47	0.000466919	0.00713287
1573.79	-0.000588989	0.00392578
1576.13	-0.697784	-0.0182373
1578.47	0.0003479	0.00712372
1580.79	0.000982666	0.0039209
1583.13	-0.698212	-0.0182251
1585.47	0.000784302	0.00711365
1587.79	-0.00045166	0.00393127
1590.09	-0.00057373	0.00219055