Folder: electrochromicfilms/Edgar/20240607/20240607/electrodeposition_pulsed_potential_20240607_B (part 2)

File: pulses_2000_to_3000.txt
Time (s)	WE(1).Potential (V)	WE(1).Current (A)
1599.1	-0.697723	-0.020697
1601.44	-0.000631714	0.0082489
1603.76	0.000894165	0.00417084
1606.1	-0.698944	-0.0186157
1608.44	0.000643921	0.00832825
1610.76	0.000894165	0.00421295
1613.1	-0.698975	-0.0185944
1615.44	-0.00090332	0.00834045
1617.76	0.000189209	0.00423248
1620.1	-0.698425	-0.0185913
1622.44	-0.000762939	0.00834656
1624.76	9.46045e-05	0.00424927
1627.1	-0.698669	-0.0185699
1629.44	-0.000216675	0.00834045
1631.76	-0.000543213	0.00426056
1634.1	-0.697815	-0.0185669
1636.44	-0.000680542	0.00834351
1638.76	0.00020752	0.00426056
1641.1	-0.698395	-0.018576
1643.44	-4.27246e-05	0.00834656
1645.76	0.000656128	0.00427246
1648.1	-0.697723	-0.018573
1650.44	0.000210571	0.00834351
1652.76	0.00022583	0.00427246
1655.1	-0.697845	-0.0185699
1657.44	-0.000769043	0.00834656
1659.76	0.000424194	0.00428345
1662.1	-0.699036	-0.0185516
1664.44	0.000244141	0.0083374
1666.76	-0.000411987	0.0042926
1669.1	-0.698792	-0.0185577
1671.44	-0.000784302	0.00833435
1673.76	-0.00050354	0.00429596
1676.1	-0.699036	-0.0185486
1678.44	0.000622559	0.00832214
1680.76	0.000283813	0.0042981
1683.1	-0.69754	-0.0185577
1685.44	-0.000323486	0.0083252
1687.76	-0.000320435	0.00430573
1690.1	-0.698151	-0.0185486
1692.44	-0.000445557	0.00832214
1694.76	-1.52588e-05	0.00430817
1697.1	-0.6987	-0.0185455
1699.44	4.57764e-05	0.00830383
1701.76	0.000546265	0.00431427
1704.1	-0.697876	-0.0185577
1706.44	-0.000292969	0.00829468
1708.76	-4.27246e-05	0.00432129
1711.1	-0.697449	-0.0185364
1713.44	-0.000604248	0.00829468
1715.76	0.000378418	0.00432037
1718.1	-0.698822	-0.0185364
1720.44	0.000579834	0.00829773
1722.76	-0.000128174	0.00432587
1725.1	-0.698517	-0.0185455
1727.44	0.000567627	0.00829163
1729.76	-0.000631714	0.00433868
1732.1	-0.697968	-0.0185364
1734.44	-0.000845337	0.00829468
1736.76	-0.000543213	0.00434479
1739.1	-0.698975	-0.0185272
1741.44	0.000540161	0.00828552
1743.76	0.000765991	0.00433807
1746.1	-0.698578	-0.0185333
1748.44	0.000643921	0.00828247
1750.76	0.000469971	0.00434357
1753.1	-0.69754	-0.0185333
1755.44	0.000601196	0.00826416
1757.76	0.000369263	0.00435303
1760.1	-0.698761	-0.0185211
1762.44	0.00055542	0.00826111
1764.76	0.000466919	0.00435303
1767.1	-0.697723	-0.0185272
1769.44	-8.8501e-05	0.00827026
1771.76	0.000650024	0.00435516
1774.1	-0.698517	-0.018512
1776.44	0.000515747	0.00826416
1778.76	-0.000387573	0.00436981
1781.1	-0.698395	-0.0185181
1783.44	-0.000778198	0.00824585
1785.76	0.000653076	0.00436676
1788.1	-0.697601	-0.018512
1790.44	0.000454712	0.0082428
1792.76	-6.10352e-06	0.00437347
1795.1	-0.69873	-0.018515
1797.44	0.000588989	0.00824585
1799.76	-0.000497437	0.00438019
1802.1	-0.6987	-0.0184937
1804.44	0.000421143	0.00823669
1806.76	0.000762939	0.00437439
1809.1	-0.698425	-0.0184906
1811.44	-0.000524902	0.00823364
1813.76	0.000900269	0.00438049
1816.1	-0.698547	-0.0185028
1818.44	-0.000244141	0.00821838
1820.76	0.000704956	0.00438263
1823.1	-0.69809	-0.0184906
1825.44	0.000518799	0.00822144
1827.76	0.000665283	0.00439026
1830.1	-0.697937	-0.0185028
1832.44	-0.000701904	0.00822449
1834.76	-0.000280762	0.00440094
1837.1	-0.697632	-0.0184967
1839.44	-0.000817871	0.00821228
1841.76	0.00085144	0.00439423
1844.1	-0.69751	-0.0184875
1846.44	0.000628662	0.008203125
1848.76	0.000253296	0.00440643
1851.1	-0.698059	-0.0184906
1853.44	-0.000582886	0.00821228
1855.76	2.13623e-05	0.0044104
1858.1	-0.697571	-0.0184814
1860.44	0.000170898	0.00819092
1862.76	-0.000439453	0.00441833
1865.1	-0.697876	-0.0184784
1867.44	0.00057373	0.00819702
1869.76	7.32422e-05	0.00441681
1872.1	-0.698883	-0.0184723
1874.44	0.000604248	0.00818787
1876.76	-0.000436401	0.00442474
1879.1	-0.69873	-0.0184631
1881.44	0.000314331	0.00819092
1883.76	-0.000390625	0.00443146
1886.1	-0.697815	-0.0184662
1888.44	-0.000695801	0.00818481
1890.76	-0.000317383	0.00443054
1893.1	-0.697479	-0.0184631
1895.44	0.000680542	0.00818176
1897.76	-0.000485229	0.00443512
1900.1	-0.698914	-0.0184692
1902.44	-0.000222778	0.00818481
1904.76	-0.000509644	0.00443756
1907.1	-0.69751	-0.0184753
1909.44	0.000543213	0.00816956
1911.76	-0.000143433	0.00444183
1914.1	-0.698364	-0.0184784
1916.44	-9.76562e-05	0.00818481
1918.76	0.000888062	0.00443756
1921.1	-0.698914	-0.0184784
1923.44	0.000473022	0.00817261
1925.76	0.000665283	0.00444458
1928.1	-0.698944	-0.0184814
1930.44	1.83105e-05	0.00817871
1932.76	-0.000512695	0.00445099
1935.1	-0.698792	-0.0184845
1937.44	-0.000393677	0.00817871
1939.76	0.000796509	0.00445282
1942.1	-0.697571	-0.0184814
1944.44	-0.000518799	0.00817261
1946.76	0.000143433	0.00445984
1949.1	-0.698578	-0.0184692
1951.44	0.000628662	0.0081543
1953.76	0.000744629	0.00445679
1956.1	-0.698792	-0.0184662
1958.44	0.000292969	0.00814819
1960.76	-0.00055542	0.00446808
1963.1	-0.697632	-0.0184784
1965.44	-0.000701904	0.00814819
1967.76	7.01904e-05	0.0044696
1970.1	-0.697968	-0.0184692
1972.44	-0.000454712	0.00814209
1974.76	0.000369263	0.00447205
1977.1	-0.698669	-0.0184692
1979.44	-0.000177002	0.00814819
1981.76	0.000762939	0.00447113
1984.1	-0.698883	-0.0184631
1986.44	-0.000820923	0.00814209
1988.76	0.000881958	0.00447357
1991.1	-0.697571	-0.0184662
1993.44	-0.000543213	0.00814819
1995.76	-0.000326538	0.00448364
1998.1	-0.697754	-0.0184662
2000.44	0.000326538	0.00813293
2002.76	0.000817871	0.00448059
2005.1	-0.697876	-0.0184479
2007.44	0.000115967	0.00813599
2009.76	0.000650024	0.00448517
2012.1	-0.697845	-0.0184509
2014.44	-0.000805664	0.00812378
2016.76	-0.00055542	0.00449768
2019.1	-0.698486	-0.0184479
2021.44	0.000561523	0.00811462
2023.76	0.000650024	0.00449188
2026.1	-0.69754	-0.0184509
2028.44	0.000656128	0.00810852
2030.76	0.000750732	0.00449738
2033.1	-0.697571	-0.0184448
2035.44	-0.000604248	0.00811462
2037.76	1.52588e-05	0.00450287
2040.1	-0.69873	-0.0184387
2042.44	-9.46045e-05	0.00810852
2044.76	0.00065918	0.00450195
2047.1	-0.698853	-0.0184265
2049.44	0.000384521	0.00810547
2051.76	0.000708008	0.00450653
2054.1	-0.697693	-0.0184265
2056.44	0.000518799	0.00809937
2058.76	-0.000588989	0.00451569
2061.1	-0.698059	-0.0184357
2063.44	-0.000262451	0.00810242
2065.76	0.000558472	0.00451447
2068.1	-0.698364	-0.0184296
2070.44	0.000323486	0.00809021
2072.76	-0.000543213	0.00452545
2075.1	-0.697845	-0.0184296
2077.44	-0.000796509	0.00808411
2079.76	-0.000192261	0.00452209
2082.1	-0.698608	-0.0184082
2084.44	0.000500488	0.00806885
2086.76	-0.000350952	0.00453094
2089.1	-0.697632	-0.0184204
2091.44	0.000137329	0.008078
2093.76	0.000436401	0.00452454
2096.1	-0.69751	-0.0184174
2098.44	-0.000616455	0.00808411
2100.76	-0.000579834	0.00453278
2103.1	-0.698395	-0.018399
2105.44	-0.000656128	0.0080658
2107.76	0.000360107	0.0045401
2110.1	-0.697479	-0.0184113
2112.44	0.000219727	0.00805054
2114.76	0.0009552	0.00453461
2117.1	-0.698029	-0.0184143
2119.44	0.000140381	0.0080658
2121.76	-0.000579834	0.00454773
2124.1	-0.69873	-0.0184052
2126.44	0.00020752	0.00804443
2128.76	-0.000653076	0.00454865
2131.1	-0.699005	-0.0183929
2133.44	0.000506592	0.00805664
2135.76	-0.000640869	0.00455566
2138.1	-0.697693	-0.0184021
2140.44	-0.000549316	0.00805054
2142.76	0.000845337	0.00455383
2145.1	-0.697632	-0.018396
2147.44	-0.000787354	0.00804138
2149.76	-0.000262451	0.00456299
2152.1	-0.698944	-0.0183807
2154.44	-0.000704956	0.00804443
2156.76	0.000314331	0.00456268
2159.1	-0.69754	-0.0183929
2161.44	-0.000521851	0.00803223
2163.76	-2.13623e-05	0.00455994
2166.1	-0.698059	-0.0183899
2168.44	-0.000683594	0.00804138
2170.76	-1.2207e-05	0.00456238
2173.1	-0.69754	-0.0183899
2175.44	0.000445557	0.00803528
2177.76	0.00062561	0.00456329
2180.1	-0.699005	-0.0183685
2182.44	0.000271606	0.00802612
2184.76	-0.000302124	0.00457825
2187.1	-0.69812	-0.0183716
2189.44	-0.000839233	0.00802307
2191.76	-0.000430298	0.00457947
2194.1	-0.698059	-0.0183746
2196.44	0.000308228	0.00802307
2198.76	0.000491333	0.00457916
2201.1	-0.698029	-0.0183838
2203.44	6.40869e-05	0.00799866
2205.76	0.00039978	0.00458527
2208.1	-0.697479	-0.0183716
2210.44	-0.000140381	0.00801392
2212.76	-0.000546265	0.00458923
2215.1	-0.698975	-0.0183594
2217.44	0.000427246	0.00800476
2219.76	0.000524902	0.00458832
2222.1	-0.698822	-0.0183563
2224.44	-0.000366211	0.00800171
2226.76	0.00038147	0.00459076
2229.1	-0.697662	-0.0183838
2231.44	0.000509644	0.00800781
2233.76	-0.000268555	0.00459869
2236.1	-0.698975	-0.0183655
2238.44	-0.000543213	0.00800476
2240.76	2.44141e-05	0.0045993
2243.1	-0.6987	-0.0183716
2245.44	-0.000289917	0.00800476
2247.76	-0.000518799	0.00460236
2250.1	-0.698792	-0.0183624
2252.44	-0.000265503	0.00800171
2254.76	0.00088501	0.00459686
2257.1	-0.697571	-0.0183746
2259.44	-0.000836182	0.0079895
2261.76	3.05176e-05	0.00460236
2264.1	-0.69751	-0.0183746
2266.44	0.000234985	0.00799561
2268.76	-0.000564575	0.00461243
2271.1	-0.697968	-0.0183563
2273.44	0.000436401	0.0079834
2275.76	0.000848389	0.00460632
2278.1	-0.698395	-0.0183594
2280.44	4.57764e-05	0.0079834
2282.76	-0.000439453	0.00461792
2285.1	-0.697815	-0.0183594
2287.44	0.000592041	0.00797119
2289.76	0.000314331	0.00461304
2292.1	-0.697571	-0.0183502
2294.44	-9.46045e-05	0.00798035
2296.76	0.000335693	0.00462067
2299.06	-0.000500488	0.00277588

File: pulses_3000_to_4000.txt
Time (s)	WE(1).Potential (V)	WE(1).Current (A)
2307.85	-0.697449	-0.0210907
2310.19	-0.000524902	0.00782776
2312.51	0.000320435	0.00456726
2314.85	-0.698364	-0.0183716
2317.19	-0.000543213	0.00792542
2319.51	-0.000570679	0.00461151
2321.85	-0.697571	-0.0183685
2324.19	0.000567627	0.00793152
2326.51	-0.000543213	0.00462402
2328.85	-0.698273	-0.0183563
2331.19	-0.000918579	0.00794067
2333.51	-0.000521851	0.0046347
2335.85	-0.699036	-0.0183411
2338.19	0.000604248	0.00793762
2340.51	0.000531006	0.00463318
2342.85	-0.697815	-0.018338
2345.19	0.000683594	0.00793762
2347.51	0.000915527	0.00463501
2349.85	-0.698883	-0.0183289
2352.19	-0.000305176	0.00793457
2354.51	4.27246e-05	0.00464172
2356.85	-0.697784	-0.0183289
2359.19	-0.000613403	0.00794067
2361.51	0.000198364	0.00464752
2363.85	-0.699036	-0.0183319
2366.19	-0.000814819	0.00794067
2368.51	-0.000570679	0.00465576
2370.85	-0.699097	-0.0183258
2373.19	-0.000808716	0.00794067
2375.51	-0.000454712	0.00465088
2377.85	-0.699097	-0.0183197
2380.19	0.000393677	0.00791931
2382.51	-0.000119019	0.00466248
2384.85	-0.698608	-0.0183319
2387.19	-0.000674438	0.00792542
2389.51	5.18799e-05	0.00465424
2391.85	-0.698364	-0.0183228
2394.19	-0.000473022	0.00793457
2396.51	0.00043335	0.00465454
2398.85	-0.697845	-0.0183136
2401.19	3.35693e-05	0.00792542
2403.51	0.000869751	0.00465851
2405.85	-0.698914	-0.0183105
2408.19	-5.18799e-05	0.00792542
2410.51	0.000595093	0.00466675
2412.85	-0.69873	-0.0183014
2415.19	-0.000665283	0.00794067
2417.51	0.000543213	0.0046698
2419.85	-0.698914	-0.0183319
2422.19	0.000631714	0.00792542
2424.51	-0.000140381	0.00467377
2426.85	-0.698914	-0.0183197
2429.19	0.0006073	0.00792236
2431.51	0.00017395	0.00467041
2433.85	-0.697632	-0.0183258
2436.19	0.000402832	0.00791321
2438.51	0.00083313	0.00466766
2440.85	-0.699005	-0.0183167
2443.19	0.000616455	0.00791626
2445.51	0.000891113	0.00467377
2447.85	-0.697693	-0.0183197
2450.19	-0.000762939	0.00791931
2452.51	-0.000320435	0.00468048
2454.85	-0.698151	-0.0183136
2457.19	7.93457e-05	0.00789795
2459.51	0.00038147	0.00467773
2461.85	-0.699005	-0.0183105
2464.19	0.000650024	0.00790405
2466.51	-0.000604248	0.00468872
2468.85	-0.69812	-0.0183167
2471.19	-1.2207e-05	0.0078949
2473.51	0.000692749	0.00467987
2475.85	-0.698853	-0.0182983
2478.19	-0.000802612	0.007901
2480.51	-0.000579834	0.00469238
2482.85	-0.698395	-0.0182953
2485.19	0.000628662	0.0078949
2487.51	-0.000561523	0.00469482
2489.85	-0.699036	-0.0183014
2492.19	-0.000231934	0.00788879
2494.51	0.000628662	0.00468719
2496.85	-0.698761	-0.0182983
2499.19	-0.000799561	0.00789795
2501.51	0.000836182	0.00468872
2503.85	-0.698273	-0.0183044
2506.19	-0.000585937	0.00788269
2508.51	8.23975e-05	0.00469879
2510.85	-0.698944	-0.0182983
2513.19	0.000305176	0.00787354
2515.51	0.000790405	0.0046936
2517.85	-0.698975	-0.0182953
2520.19	-0.00010376	0.00788879
2522.51	0.000769043	0.00469604
2524.85	-0.697845	-0.0182922
2527.19	0.000488281	0.00787048
2529.51	0.000692749	0.00469757
2531.85	-0.697815	-0.0183044
2534.19	0.000564575	0.00787964
2536.51	-0.000259399	0.00471069
2538.85	-0.699005	-0.0182892
2541.19	-0.000579834	0.00788269
2543.51	-0.000604248	0.00471344
2545.85	-0.697693	-0.0182922
2548.19	-0.000680542	0.00787354
2550.51	0.000881958	0.00470612
2552.85	-0.697601	-0.0182892
2555.19	0.000595093	0.00786438
2557.51	-0.000305176	0.00471771
2559.85	-0.697754	-0.01828
2562.19	-0.000149536	0.00787659
2564.51	-0.000308228	0.00472015
2566.85	-0.69754	-0.0182892
2569.19	-0.00065918	0.00786133
2571.51	0.000640869	0.0047171
2573.85	-0.698669	-0.01828
2576.19	-0.000146484	0.00784912
2578.51	0.000610352	0.00471619
2580.85	-0.698975	-0.0182709
2583.19	0.000515747	0.00784912
2585.51	0.000866699	0.00471832
2587.85	-0.698517	-0.0182678
2590.19	0.000350952	0.00784302
2592.51	-0.000564575	0.00473206
2594.85	-0.699036	-0.0182648
2597.19	0.000570679	0.00784912
2599.51	-0.000384521	0.00473236
2601.85	-0.698364	-0.0182648
2604.19	0.000442505	0.00783691
2606.51	0.000100708	0.00473389
2608.85	-0.698456	-0.0182617
2611.19	-0.000726318	0.00783997
2613.51	0.000872803	0.00473145
2615.85	-0.698181	-0.0182709
2618.19	-0.000582886	0.00785217
2620.51	-0.000631714	0.00473785
2622.85	-0.699066	-0.0182556
2625.19	-0.00078125	0.00783691
2627.51	-0.000628662	0.00474091
2629.85	-0.697998	-0.0182739
2632.19	-0.000665283	0.00784607
2634.51	2.44141e-05	0.00474121
2636.85	-0.699127	-0.0182617
2639.19	-0.000387573	0.00782166
2641.51	0.000802612	0.00473419
2643.85	-0.69754	-0.0182648
2646.19	-0.000460815	0.0078186
2648.51	-0.000494385	0.00474487
2650.85	-0.699036	-0.0182526
2653.19	-0.000619507	0.00783081
2655.51	-0.000265503	0.00474365
2657.85	-0.6987	-0.0182587
2660.19	0.000485229	0.0078186
2662.51	0.000119019	0.00474304
2664.85	-0.698944	-0.0182434
2667.19	-0.000256348	0.00781555
2669.51	0.000421143	0.00474854
2671.85	-0.699036	-0.0182434
2674.19	-0.000143433	0.0078125
2676.51	0.000698853	0.00474518
2678.85	-0.698975	-0.0182404
2681.19	0.000250244	0.0078186
2683.51	0.000369263	0.00475067
2685.85	-0.697601	-0.0182465
2688.19	0.000595093	0.0078064
2690.51	0.000881958	0.0047464
2692.85	-0.697998	-0.0182434
2695.19	0.000192261	0.00779724
2697.51	0.000601196	0.00475159
2699.85	-0.69754	-0.0182404
2702.19	0.000375366	0.00779419
2704.51	-9.15527e-06	0.00475555
2706.85	-0.698975	-0.0182312
2709.19	0.000466919	0.00780029
2711.51	-8.23975e-05	0.00476227
2713.85	-0.697845	-0.0182556
2716.19	0.000164795	0.00779114
2718.51	0.000634766	0.00475067
2720.85	-0.698914	-0.0182495
2723.19	0.000213623	0.0078064
2725.51	0.000805664	0.00475891
2727.85	-0.697571	-0.0182526
2730.19	-0.000756836	0.00780029
2732.51	0.000164795	0.00476532
2734.85	-0.699158	-0.0182465
2737.19	0.000613403	0.00779724
2739.51	-0.000292969	0.00476807
2741.85	-0.697815	-0.0182556
2744.19	-0.000112915	0.0078064
2746.51	0.00015564	0.0047644
2748.85	-0.697998	-0.0182556
2751.19	0.000186157	0.00780029
2753.51	0.000180054	0.00476807
2755.85	-0.699005	-0.0182404
2758.19	0.000662231	0.00778198
2760.51	-0.000588989	0.00477539
2762.85	-0.699005	-0.0182404
2765.19	0.000363159	0.00776978
2767.51	-7.62939e-05	0.00476929
2769.85	-0.698578	-0.0182281
2772.19	0.000592041	0.00777893
2774.51	-6.10352e-06	0.00477417
2776.85	-0.697571	-0.0182434
2779.19	-0.000436401	0.00777588
2781.51	0.000714111	0.00477173
2783.85	-0.698273	-0.0182373
2786.19	-0.000561523	0.00777893
2788.51	0.00012207	0.00477448
2790.85	-0.697845	-0.0182404
2793.19	0.000201416	0.00777588
2795.51	0.000616455	0.00477814
2797.85	-0.697723	-0.0182281
2800.19	-0.00010376	0.00777588
2802.51	0.000823975	0.00477509
2804.85	-0.697662	-0.0182312
2807.19	0.000112915	0.00776062
2809.51	0.000924683	0.00478149
2811.85	-0.698853	-0.0182281
2814.19	-0.000430298	0.00777283
2816.51	8.8501e-05	0.00478943
2818.85	-0.699036	-0.018222
2821.19	0.000338745	0.00776367
2823.51	0.000552368	0.00478973
2825.85	-0.697815	-0.018222
2828.19	-0.000698853	0.00776672
2830.51	0.00055542	0.00478638
2832.85	-0.698792	-0.0182251
2835.19	-0.000842285	0.00776062
2837.51	-0.000540161	0.00479706
2839.85	-0.697662	-0.018222
2842.19	-0.000830078	0.00775452
2844.51	0.000854492	0.00478882
2846.85	-0.698303	-0.0182129
2849.19	0.000668335	0.00774841
2851.51	0.000796509	0.00479004
2853.85	-0.698883	-0.0182068
2856.19	-0.000326538	0.00774231
2858.51	0.000823975	0.00479279
2860.85	-0.697876	-0.0182037
2863.19	0.000152588	0.00775452
2865.51	-0.000180054	0.00479706
2867.85	-0.698425	-0.0181946
2870.19	-0.000708008	0.00773926
2872.51	-0.000531006	0.00480316
2874.85	-0.697571	-0.0181976
2877.19	0.000454712	0.00773315
2879.51	0.000839233	0.00479614
2881.85	-0.697815	-0.0182129
2884.19	9.76562e-05	0.00774536
2886.51	-2.44141e-05	0.00480194
2888.85	-0.698212	-0.0181976
2891.19	0.000137329	0.00773315
2893.51	-0.000421143	0.00480835
2895.85	-0.698822	-0.0181854
2898.19	-0.000793457	0.00773621
2900.51	0.000964355	0.00480469
2902.85	-0.697479	-0.0181976
2905.19	1.83105e-05	0.0077179
2907.51	-0.000540161	0.00481445
2909.85	-0.69754	-0.0182068
2912.19	-0.000848389	0.0077179
2914.51	0.000787354	0.00478668
2916.85	-0.698669	-0.018219
2919.19	0.000674438	0.00771179
2921.51	-7.93457e-05	0.00479004
2923.85	-0.697968	-0.0182159
2926.19	-1.2207e-05	0.00770874
2928.51	-0.000506592	0.00479889
2930.85	-0.697784	-0.0182037
2933.19	0.00020752	0.00770264
2935.51	0.000280762	0.00480286
2937.85	-0.697571	-0.0182098
2940.19	0.000418091	0.00771484
2942.51	0.000222778	0.00480713
2944.85	-0.698975	-0.0181915
2947.19	-0.000769043	0.00771179
2949.51	-0.000460815	0.00481659
2951.85	-0.699005	-0.0181915
2954.19	-0.000604248	0.00770569
2956.51	8.23975e-05	0.00481598
2958.85	-0.698822	-0.0181793
2961.19	0.000247192	0.00770569
2963.51	0.000177002	0.00481445
2965.85	-0.697571	-0.0181854
2968.19	-0.000646973	0.00769958
2970.51	0.000296021	0.00481293
2972.85	-0.697784	-0.0181824
2975.19	-0.000485229	0.00770569
2977.51	0.000848389	0.00481506
2979.85	-0.698578	-0.0181854
2982.19	0.000680542	0.00769958
2984.51	-0.000521851	0.00482666
2986.85	-0.698853	-0.0181854
2989.19	-0.00057373	0.00768738
2991.51	-0.00045166	0.00482635
2993.85	-0.697571	-0.0181793
2996.19	-0.000802612	0.00768433
2998.51	0.000549316	0.00482239
3000.85	-0.698883	-0.018161
3003.19	0.000228882	0.00768738
3005.51	0.000823975	0.00482269
3007.81	-0.000527954	0.00318878