Folder: electrochromicfilms/Edgar/20240607/20240607/electrodeposition_pulsed_potential_20240607_E

File: OCP_1
Time (s)	WE(1).Potential (V)
2.07622	0.514832
3.07622	0.515442
4.07622	0.515747
5.07622	0.516052
6.07622	0.516663
7.07622	0.516968
8.07622	0.517578
9.07622	0.517883
10.0762	0.518188
11.0762	0.518799
12.0762	0.519104
13.0762	0.519409
14.0762	0.519714
15.0762	0.520325
16.0762	0.52063
17.0762	0.520935
18.0762	0.52124
19.0762	0.521545
20.0762	0.522156
21.0762	0.522461
22.0762	0.522766
23.0762	0.523071
24.0762	0.523376
25.0762	0.523987
26.0762	0.524292
27.0762	0.524597
28.0762	0.524902
29.0762	0.525208
30.0762	0.525513
31.0762	0.525818
32.0762	0.526123
33.0762	0.526428
34.0762	0.526733
35.0762	0.527039
36.0762	0.527344
37.0762	0.527649
38.0762	0.527954
39.0762	0.528259
40.0762	0.528564
41.0762	0.52887
42.0762	0.529175
43.0762	0.52948
44.0762	0.529785
45.0762	0.53009
46.0762	0.530396
47.0762	0.530701
48.0762	0.531006
49.0762	0.531311
50.0762	0.531616
51.0762	0.531921
52.0762	0.532227
53.0762	0.532532
54.0762	0.532837
55.0762	0.532837
56.0762	0.533142
57.0762	0.533447
58.0762	0.533752
59.0762	0.534058
60.0762	0.534363
61.0762	0.534668
62.0762	0.534668
63.0762	0.534973
64.0762	0.535278
65.0762	0.535583
66.0762	0.535889
67.0762	0.536194
68.0762	0.536194
69.0762	0.536499
70.0762	0.536804
71.0762	0.537109
72.0762	0.537415
73.0762	0.537415
74.0762	0.53772
75.0762	0.538025
76.0762	0.53833
77.0762	0.538635
78.0762	0.538635
79.0762	0.53894
80.0762	0.539246
81.0762	0.539551
82.0762	0.539551
83.0762	0.539856
84.0762	0.540161
85.0762	0.540466
86.0762	0.540466
87.0762	0.540771
88.0762	0.541077
89.0762	0.541382
90.0762	0.541382
91.0762	0.541687
92.0762	0.541992
93.0762	0.541992
94.0762	0.542297
95.0762	0.542603
96.0762	0.542603
97.0762	0.542908
98.0762	0.543213
99.0762	0.543213
100.076	0.543518
101.076	0.543823
102.076	0.544128
103.076	0.544128
104.076	0.544434
105.076	0.544739
106.076	0.544739
107.076	0.545044
108.076	0.545349
109.076	0.545349
110.076	0.545654
111.076	0.545959
112.076	0.545959
113.076	0.546265
114.076	0.54657
115.076	0.54657
116.076	0.546875
117.076	0.54718
118.076	0.54718
119.076	0.547485
120.076	0.547485
121.076	0.547791
122.076	0.547791
123.076	0.548096
124.076	0.548401
125.076	0.548401
126.076	0.548706
127.076	0.548706
128.076	0.549011
129.076	0.549316
130.076	0.549316
131.076	0.549622
132.076	0.549622
133.076	0.549927
134.076	0.549927
135.076	0.550232
136.076	0.550537
137.076	0.550537
138.076	0.550842
139.076	0.550842
140.076	0.551147
141.076	0.551453
142.076	0.551453
143.076	0.551758
144.076	0.551758
145.076	0.552063
146.076	0.552368
147.076	0.552368
148.076	0.552673
149.076	0.552673
150.076	0.552979
151.076	0.553284
152.076	0.553284
153.076	0.553589
154.076	0.553589
155.076	0.553894
156.076	0.553894
157.076	0.554199
158.076	0.554199
159.076	0.554504
160.076	0.55481
161.076	0.55481
162.076	0.555115
163.076	0.555115
164.076	0.55542
165.076	0.55542
166.076	0.555725
167.076	0.55603
168.076	0.55603
169.076	0.556335
170.076	0.556335
171.076	0.556641
172.076	0.556641
173.076	0.556946
174.076	0.557251
175.076	0.557251
176.076	0.557251
177.076	0.557556
178.076	0.557556
179.076	0.557861
180.076	0.558167
181.076	0.558167

File: OCP_3
Time (s)	WE(1).Potential (V)
3726.14	0.0386414
3727.14	0.0559082
3728.14	0.0715332
3729.14	0.0858154
3730.14	0.098938
3731.14	0.111145
3732.14	0.122406
3733.14	0.132843
3734.14	0.142548
3735.14	0.151611
3736.14	0.160034
3737.14	0.167908
3738.14	0.175262
3739.14	0.182129
3740.14	0.188599
3741.14	0.194702
3742.14	0.200409
3743.14	0.205811
3744.14	0.210907
3745.14	0.215759
3746.14	0.220337
3747.14	0.22467
3748.14	0.228882
3749.14	0.23288
3750.14	0.236725
3751.14	0.240417
3752.14	0.243988
3753.14	0.247375
3754.14	0.250732
3755.14	0.253967
3756.14	0.257111
3757.14	0.260132
3758.14	0.263123
3759.14	0.266022
3760.14	0.26889
3761.14	0.271698
3762.14	0.274475
3763.14	0.277191
3764.14	0.279846
3765.14	0.282501
3766.14	0.285126
3767.14	0.28772
3768.14	0.290344
3769.14	0.292908
3770.14	0.295441
3771.14	0.298065
3772.14	0.300629
3773.14	0.303162
3774.14	0.305756
3775.14	0.30838
3776.14	0.311005
3777.14	0.313629
3778.14	0.316284
3779.14	0.31897
3780.14	0.321716
3781.14	0.324493
3782.14	0.327332
3783.14	0.3302
3784.14	0.33316
3785.14	0.336121
3786.14	0.339233
3787.14	0.342407
3788.14	0.345612
3789.14	0.348846
3790.14	0.352203
3791.14	0.355591
3792.14	0.3591
3793.14	0.362671
3794.14	0.366364
3795.14	0.370056
3796.14	0.37381
3797.14	0.377533
3798.14	0.381317
3799.14	0.385162
3800.14	0.388977
3801.14	0.392853
3802.14	0.396698
3803.14	0.400543
3804.14	0.404358
3805.14	0.408173
3806.14	0.411957
3807.14	0.415771
3808.14	0.419678
3809.14	0.423462
3810.14	0.427246
3811.14	0.431061
3812.14	0.434906
3813.14	0.438782
3814.14	0.442688
3815.14	0.446533
3816.14	0.45047
3817.14	0.454437
3818.14	0.458496
3819.14	0.462524
3820.14	0.466614
3821.14	0.470673
3822.14	0.474792
3823.14	0.479095
3824.14	0.483337
3825.14	0.48764
3826.14	0.492004
3827.14	0.496399
3828.14	0.501099
3829.14	0.505371
3830.14	0.509949
3831.14	0.514221
3832.14	0.518799
3833.14	0.523071
3834.14	0.527344
3835.14	0.531616
3836.14	0.535583
3837.14	0.539551
3838.14	0.543518
3839.14	0.54718
3840.14	0.550537
3841.14	0.553894
3842.14	0.557251
3843.14	0.560303
3844.14	0.563049
3845.14	0.565796
3846.14	0.568237
3847.14	0.570679
3848.14	0.572815
3849.14	0.574951
3850.14	0.576782
3851.14	0.578613
3852.14	0.580139
3853.14	0.581665
3854.14	0.583191
3855.14	0.584412
3856.14	0.5859375
3857.14	0.587158
3858.14	0.588074
3859.14	0.589294
3860.14	0.59021
3861.14	0.591125
3862.14	0.592041
3863.14	0.592957
3864.14	0.593872
3865.14	0.594482
3866.14	0.595093
3867.14	0.596008
3868.14	0.596619
3869.14	0.597229
3870.14	0.597839
3871.14	0.59845
3872.14	0.59906
3873.14	0.599365
3874.14	0.599976
3875.14	0.600586
3876.14	0.600891
3877.14	0.601196
3878.14	0.601807
3879.14	0.602112
3880.14	0.602417
3881.14	0.603027
3882.14	0.603333
3883.14	0.603638
3884.14	0.603943
3885.14	0.604248
3886.14	0.604553
3887.14	0.604858
3888.14	0.605164
3889.14	0.605774
3890.14	0.605774
3891.14	0.606079
3892.14	0.606384
3893.14	0.606689
3894.14	0.606995
3895.14	0.6073
3896.14	0.6073
3897.14	0.607605
3898.14	0.60791
3899.14	0.608215
3900.14	0.608215
3901.14	0.608521
3902.14	0.608826
3903.14	0.608826
3904.14	0.609131
3905.14	0.609436

File: pulses_0_to_1000.txt
Time (s)	WE(1).Potential (V)	WE(1).Current (A)
181.662	-0.700043	-0.00362061
184.002	-0.000238037	0.000116394
186.322	-0.000750732	2.76184e-05
188.662	-0.698914	-0.00578186
191.002	0.000692749	0.000214539
193.322	-0.000384521	-5.22461e-05
195.662	-0.699982	-0.00819397
198.002	0.000198364	0.000471405
200.322	0.00112915	-0.000123657
202.662	-0.699127	-0.00968933
205.002	-0.00010376	0.0013092
207.322	-0.000305176	-0.000148865
209.662	-0.698517	-0.0107697
212.002	0.00123901	0.00239197
214.322	0.00123291	-0.000175446
216.662	-0.697784	-0.0115784
219.002	0.000979614	0.00337341
221.322	-0.000579834	-0.00017337
223.662	-0.698853	-0.0121887
226.002	0.00128174	0.0041449
228.322	0.000860596	-0.000182556
230.662	-0.698425	-0.0126923
233.002	0.000424194	0.0047467
235.322	-0.00038147	-0.000171021
237.662	-0.699524	-0.0130829
240.002	0.000213623	0.00522888
242.322	0.00107727	-0.000170593
244.662	-0.699219	-0.0134094
247.002	0.000228882	0.00560944
249.322	-0.000305176	-0.000148651
251.662	-0.699615	-0.013678
254.002	0.00119019	0.00591187
256.322	0	-0.000137787
258.662	-0.699493	-0.0139252
261.002	-0.000875854	0.00617767
263.322	0.00108948	-0.000126648
265.662	-0.699341	-0.014151
268.002	-7.93457e-05	0.00638824
270.322	0.000915527	-0.000102783
272.662	-0.699402	-0.0143402
275.002	0.000430298	0.00655945
277.322	-0.000637817	-6.73218e-05
279.662	-0.6987	-0.0145325
282.002	0.000164795	0.00671051
284.322	0.000280762	-5.01404e-05
286.662	-0.69812	-0.014682
289.002	-0.00083313	0.00684448
291.322	-0.000457764	-9.552e-06
293.662	-0.699554	-0.0148285
296.002	-0.000311279	0.00694611
298.322	0.00123291	1.43433e-05
300.662	-0.699554	-0.0149658
303.002	0.000311279	0.00703888
305.322	-0.000308228	5.86853e-05
307.662	-0.699646	-0.015094
310.002	0.00105286	0.00712158
312.322	-4.27246e-05	9.56421e-05
314.662	-0.69812	-0.0152313
317.002	-0.000750732	0.00720581
319.322	0.000189209	0.000127258
321.662	-0.697479	-0.015332
324.002	0.000900269	0.00726349
326.322	-0.000726318	0.000178894
328.662	-0.6987	-0.0154236
331.002	0.00114441	0.00732269
333.322	0.00055542	0.00021106
335.662	-0.69928	-0.0155365
338.002	-0.000695801	0.0073819
340.322	0.00017395	0.000258789
342.662	-0.69754	-0.0156281
345.002	-0.00038147	0.00742737
347.322	-0.000244141	0.000304779
349.662	-0.698151	-0.0157227
352.002	0.00057373	0.00746765
354.322	0.00111694	0.000339935
356.662	-0.697418	-0.0157959
359.002	0.000161743	0.00751648
361.322	-0.000576782	0.000396667
363.662	-0.698944	-0.0158478
366.002	-0.00101318	0.00753479
368.322	-0.000213623	0.000437866
370.662	-0.699402	-0.0159363
373.002	-0.000875854	0.00756836
375.322	-0.000482178	0.000484558
377.662	-0.698364	-0.0160004
380.002	0.0009552	0.00758362
382.322	3.35693e-05	0.000533752
384.662	-0.697632	-0.0160675
387.002	-0.00104675	0.00761108
389.322	-0.00057373	0.000579529
391.662	-0.698578	-0.0161438
394.002	0.000619507	0.0076355
396.322	-0.000735474	0.00062439
398.662	-0.697693	-0.0162018
401.002	0.00090332	0.00763855
403.322	0.00121765	0.00065918
405.662	-0.699371	-0.0162354
408.002	0.000717163	0.00766296
410.322	-0.000784302	0.000714417
412.662	-0.698761	-0.0163025
415.002	-0.000216675	0.00765381
417.322	-0.000561523	0.000759888
419.662	-0.699158	-0.0163452
422.002	0.000891113	0.00765991
424.322	0.000576782	0.000794983
426.662	-0.697662	-0.016394
429.002	0.000650024	0.00767212
431.322	0.000863647	0.000837402
433.662	-0.69931	-0.0164215
436.002	-0.000991821	0.00768433
438.322	-2.74658e-05	0.000881042
440.662	-0.697418	-0.0164642
443.002	-0.00100708	0.00769348
445.322	-2.13623e-05	0.000932617
447.662	-0.699463	-0.0165131
450.002	0.000588989	0.00769043
452.322	0.000888062	0.000965576
454.662	-0.698486	-0.0165497
457.002	-0.000424194	0.00768738
459.322	-0.000662231	0.00101776
461.662	-0.697784	-0.0166077
464.002	-0.000619507	0.00769348
466.322	0.00123596	0.00104889
468.662	-0.698425	-0.016629
471.002	-0.00111389	0.00769653
473.322	0.000869751	0.00108948
475.662	-0.697662	-0.0166687
478.002	0.000646973	0.00769043
480.322	5.49316e-05	0.00113953
482.662	-0.698547	-0.0166992
485.002	0.000738525	0.00770264
487.322	0.00126648	0.00117157
489.662	-0.699127	-0.0167389
492.002	-0.000949097	0.00769653
494.322	0.000497437	0.00120819
496.662	-0.697388	-0.0167633
499.002	-0.000305176	0.00770264
501.322	0.00088501	0.00124847
503.662	-0.697571	-0.016803
506.002	0.00062561	0.00769348
508.322	-0.000411987	0.00129608
510.662	-0.697632	-0.0168213
513.002	-0.000552368	0.00769348
515.322	-0.0006073	0.00133728
517.662	-0.698853	-0.0168335
520.002	0.000897217	0.00767517
522.322	0.0013092	0.00136505
524.662	-0.697418	-0.0168732
527.002	0.000775146	0.00766296
529.322	0.00088501	0.00139862
531.662	-0.699036	-0.0168823
534.002	-0.00102234	0.00766602
536.322	0.0012207	0.00143463
538.662	-0.698853	-0.0169128
541.002	0.000805664	0.00765686
543.322	0.000500488	0.00147278
545.662	-0.69751	-0.0169373
548.002	-0.00098877	0.00765076
550.322	-0.000701904	0.00151062
552.662	-0.69928	-0.0169495
555.002	-0.000817871	0.0076416
557.322	0.000393677	0.00154572
559.662	-0.699127	-0.0169769
562.002	-0.000683594	0.00763855
564.322	0.000631714	0.00157349
566.662	-0.699371	-0.0169861
569.002	-0.000570679	0.00761719
571.322	0.000845337	0.00160614
573.662	-0.697601	-0.0170105
576.002	0.000933838	0.00761414
578.322	-0.000753784	0.001651
580.662	-0.699463	-0.0170197
583.002	-0.00098877	0.00760498
585.322	0.000827026	0.00166901
587.662	-0.697479	-0.0170502
590.002	-0.000247192	0.00761414
592.322	0.000292969	0.00170898
594.662	-0.69751	-0.0170502
597.002	0.000726318	0.00759277
599.322	0.00106201	0.0017334
601.662	-0.697479	-0.0170685
604.002	-0.00067749	0.00757446
606.322	0.000665283	0.0017691
608.662	-0.699493	-0.0170685
611.002	-0.00104065	0.00757141
613.322	0.00104065	0.00179291
615.662	-0.697571	-0.0170776
618.002	-0.000341797	0.00756531
620.322	0.000354004	0.00182709
622.662	-0.69928	-0.0170929
625.002	-0.000753784	0.0075531
627.322	-0.000765991	0.00186035
629.662	-0.698364	-0.0171143
632.002	0.000674438	0.00752258
634.322	0.000579834	0.00188721
636.662	-0.698669	-0.0171021
639.002	-0.00103149	0.00752258
641.322	0.00119629	0.00190582
643.662	-0.697479	-0.0171265
646.002	-0.000930786	0.00750732
648.322	0.000656128	0.00193787
650.662	-0.698669	-0.0171387
653.002	0.000198364	0.00750122
655.322	-0.000741577	0.00197235
657.662	-0.697449	-0.0171387
660.002	0.00057373	0.00748291
662.322	9.15527e-05	0.00198608
664.662	-0.6987	-0.0171295
667.002	0.000320435	0.00747864
669.322	-0.000631714	0.00202332
671.662	-0.69928	-0.0171539
674.003	0.000418091	0.00746613
676.323	0.00104675	0.00203644
678.663	-0.698273	-0.0171539
681.003	-0.000534058	0.00745789
683.323	-0.000112915	0.00207214
685.663	-0.699524	-0.01716
688.003	-0.000161743	0.00744537
690.323	0.000958252	0.00208466
692.663	-0.699005	-0.0171631
695.003	0.000180054	0.00742462
697.323	0.00118408	0.00211182
699.663	-0.697418	-0.0171875
702.003	-9.15527e-06	0.00742279
704.323	-6.10352e-05	0.00213989
706.663	-0.699127	-0.0171814
709.003	0.000231934	0.00741119
711.323	0.000192261	0.00216034
713.663	-0.699371	-0.0171753
716.003	-0.000863647	0.00740387
718.323	0.000997925	0.00218506
720.663	-0.698547	-0.0171783
723.003	0.00110168	0.00738617
725.323	0.000283813	0.00221191
727.663	-0.69751	-0.0172028
730.003	-0.000717163	0.00738495
732.323	0.000665283	0.00222809
734.663	-0.697998	-0.0171936
737.003	-0.000292969	0.00736847
739.323	-0.00072937	0.00225677
741.663	-0.697571	-0.0171997
744.003	0.000518799	0.00736115
746.323	0.000463867	0.00227722
748.663	-0.699005	-0.0172119
751.003	-0.000823975	0.00735443
753.323	-0.000549316	0.00230225
755.663	-0.699066	-0.0172028
758.003	0.0009552	0.00733307
760.323	0.000875854	0.00232025
762.663	-0.697357	-0.0172119
765.003	0.000827026	0.00731964
767.323	-0.000289917	0.00234558
769.663	-0.697784	-0.0172241
772.003	0.000198364	0.0073175
774.323	0.00108337	0.00235443
776.663	-0.699249	-0.0172028
779.003	-0.000619507	0.00730957
781.323	0.00116577	0.00237396
783.663	-0.698914	-0.0172089
786.003	-0.000793457	0.00729858
788.323	0.00121765	0.00239319
790.663	-0.699097	-0.0172028
793.003	-0.00102539	0.00728821
795.323	-7.62939e-05	0.00241547
797.663	-0.69751	-0.0172241
800.003	0.000256348	0.00727295
802.323	0.00110168	0.0024292
804.663	-0.698822	-0.017215
807.003	0.000299072	0.00726654
809.323	-0.000390625	0.00245636
811.663	-0.697998	-0.0172272
814.003	0.000302124	0.00725525
816.323	-0.000650024	0.0024765
818.663	-0.697815	-0.0172333
821.003	0.000540161	0.00723969
823.323	0.000830078	0.00248444
825.663	-0.698029	-0.017215
828.003	-0.000479126	0.00724121
830.323	-0.000753784	0.00251556
832.663	-0.699493	-0.0172089
835.003	-0.000253296	0.00722961
837.323	4.88281e-05	0.00252777
839.663	-0.697418	-0.0172241
842.003	-0.000772095	0.00722168
844.323	0.000137329	0.00254852
846.663	-0.69751	-0.0172211
849.003	0.000619507	0.00720642
851.323	0.000878906	0.00255249
853.663	-0.69931	-0.0172058
856.003	-0.00083313	0.00719574
858.323	-0.00045166	0.00258057
860.663	-0.698242	-0.0172119
863.003	-7.62939e-05	0.00718109
865.323	0.000115967	0.00259705
867.663	-0.698608	-0.0172241
870.003	-0.000369263	0.00716858
872.323	5.49316e-05	0.00261078
874.663	-0.698151	-0.0172089
877.003	-0.000814819	0.00716888
879.323	-0.000732422	0.00262848
881.623	0.001171875	0.000784302

File: pulses_1000_to_2000.txt
Time (s)	WE(1).Potential (V)	WE(1).Current (A)
890.201	-0.698517	-0.0182587
892.541	0.00103149	0.00693695
894.861	0.000738525	0.00250793
897.201	-0.69809	-0.0172638
899.541	0.00098877	0.00705933
901.861	-0.000442505	0.0026004
904.201	-0.69751	-0.0172455
906.541	-0.000143433	0.00708649
908.861	-0.000714111	0.00264038
911.201	-0.697479	-0.0172241
913.541	0.000872803	0.00708771
915.861	0.00126343	0.00265808
918.201	-0.698212	-0.0172211
920.541	-0.0009552	0.00710266
922.861	0.00102539	0.00268158
925.201	-0.697937	-0.0172028
927.541	0.000793457	0.00709106
929.861	0.00101929	0.00270416
932.201	-0.698456	-0.0171997
934.541	0.000875854	0.00708435
936.861	0.000100708	0.00272949
939.201	-0.699371	-0.0171906
941.541	-0.000491333	0.00707855
943.861	-0.000674438	0.00274567
946.201	-0.699493	-0.0171875
948.541	-0.00057373	0.0070813
950.861	-4.88281e-05	0.0027536
953.201	-0.699432	-0.0171844
955.541	0.00100403	0.00706451
957.861	0.00129089	0.00276489
960.201	-0.697571	-0.0171967
962.541	-0.000701904	0.00706573
964.861	0.000637817	0.00277618
967.201	-0.698151	-0.0171906
969.541	-0.000524902	0.00705414
971.861	0.000146484	0.00279663
974.201	-0.69751	-0.0171906
976.541	-0.000436401	0.00704681
978.861	-0.000750732	0.00281189
981.201	-0.69928	-0.0171844
983.541	0.000985718	0.00702667
985.861	-0.000799561	0.00282593
988.201	-0.699249	-0.0171753
990.541	-6.10352e-05	0.00701874
992.861	0.000564575	0.00282379
995.201	-0.697754	-0.0171722
997.541	0.00115662	0.00700989
999.861	-0.000714111	0.00284882
1002.2	-0.697662	-0.0171875
1004.54	0.000473022	0.00699982
1006.86	-0.000726318	0.00286072
1009.2	-0.698029	-0.0171722
1011.54	0.000592041	0.00698944
1013.86	0.00124817	0.00286163
1016.2	-0.697601	-0.0171631
1018.54	0.000100708	0.00699158
1020.86	-0.000506592	0.00288452
1023.2	-0.698364	-0.0171661
1025.54	0.00100708	0.00697235
1027.86	-0.000723267	0.00289642
1030.2	-0.69873	-0.0171722
1032.54	0.000668335	0.0069693
1034.86	-0.000805664	0.00290558
1037.2	-0.698303	-0.0171783
1039.54	0.000646973	0.00695404
1041.86	-0.000650024	0.00292053
1044.2	-0.697632	-0.0171661
1046.54	-0.000497437	0.00695984
1048.86	0.001171875	0.00291748
1051.2	-0.69754	-0.0171661
1053.54	0.000878906	0.00694305
1055.86	-0.000488281	0.00293701
1058.2	-0.697693	-0.01716
1060.54	-0.000784302	0.00694122
1062.86	0.000878906	0.00293793
1065.2	-0.69754	-0.017157
1067.54	0.000537109	0.00692291
1069.86	0.000582886	0.00295746
1072.2	-0.698334	-0.0171387
1074.54	-0.000912476	0.006922
1076.86	0.000527954	0.00296478
1079.2	-0.699371	-0.0171448
1081.54	-0.000640869	0.00691589
1083.86	-0.000601196	0.00298035
1086.2	-0.697418	-0.0171509
1088.54	0.000427246	0.00690216
1090.86	0.00043335	0.00297974
1093.2	-0.697784	-0.0171509
1095.54	0.000183105	0.00689606
1097.86	-0.000695801	0.0030011
1100.2	-0.698517	-0.0171295
1102.54	0.000482178	0.00688629
1104.86	0.000775146	0.00300598
1107.2	-0.697418	-0.0171295
1109.54	-0.000747681	0.00687531
1111.86	-0.000628662	0.00301636
1114.2	-0.699371	-0.0171265
1116.54	0.00065918	0.00686401
1118.86	-0.000778198	0.00302795
1121.2	-0.697479	-0.0171265
1123.54	-0.000952148	0.00686554
1125.86	4.27246e-05	0.0030365
1128.2	-0.698608	-0.0171051
1130.54	-0.00088501	0.00685944
1132.86	-0.000390625	0.00304901
1135.2	-0.699402	-0.0171143
1137.54	-0.00083313	0.00685059
1139.86	0.000152588	0.00305725
1142.2	-0.699463	-0.0171082
1144.54	-0.000631714	0.00684265
1146.86	0.000979614	0.00305298
1149.2	-0.699188	-0.0170959
1151.54	0.00098877	0.00682556
1153.86	0.000259399	0.0030658
1156.2	-0.699097	-0.0170959
1158.54	0.000793457	0.00681274
1160.86	0.000646973	0.00307281
1163.2	-0.697937	-0.017099
1165.54	-0.000183105	0.00681671
1167.86	7.62939e-05	0.0030835
1170.2	-0.69928	-0.0170868
1172.54	-0.000854492	0.00681549
1174.86	0.000671387	0.00308807
1177.2	-0.698883	-0.0170868
1179.54	-0.000253296	0.00680115
1181.86	0.000720215	0.00309509
1184.2	-0.697876	-0.0170807
1186.54	0.000952148	0.00678314
1188.86	-0.000485229	0.00311676
1191.2	-0.697296	-0.0170776
1193.54	-0.00100708	0.0067868
1195.86	-0.000753784	0.00312378
1198.2	-0.697571	-0.0170807
1200.54	-0.000390625	0.00677917
1202.86	0.000964355	0.00312561
1205.2	-0.697357	-0.0170593
1207.54	0.00119324	0.00676331
1209.86	0.000619507	0.00313416
1212.2	-0.69754	-0.0170746
1214.54	0.00107727	0.00675507
1216.86	0.000796509	0.00314148
1219.2	-0.697662	-0.0170502
1221.54	0.000537109	0.00675171
1223.86	-0.000448608	0.00315704
1226.2	-0.699371	-0.0170471
1228.54	-0.000521851	0.00675201
1230.86	-0.000775146	0.00316528
1233.2	-0.697601	-0.017038
1235.54	0.0010376	0.0067334
1237.86	0.000595093	0.00316833
1240.2	-0.697784	-0.0170349
1242.54	6.40869e-05	0.00672974
1244.86	0.000387573	0.00317108
1247.2	-0.699341	-0.0170319
1249.54	0.000970459	0.00671967
1251.86	-5.18799e-05	0.00317993
1254.2	-0.697906	-0.017038
1256.54	-0.000964355	0.00672241
1258.86	-0.000308228	0.00319641
1261.2	-0.69754	-0.0170349
1263.54	0.000189209	0.00671387
1265.86	-0.000378418	0.0031955
1268.2	-0.69809	-0.0170044
1270.54	0.000674438	0.00669891
1272.86	0.0006073	0.00320038
1275.2	-0.698822	-0.0170013
1277.54	0.000100708	0.00670166
1279.86	0.00108032	0.00320618
1282.2	-0.698364	-0.0170074
1284.54	0.000875854	0.00668915
1286.86	0.000405884	0.00321533
1289.2	-0.699341	-0.0170074
1291.54	-0.000756836	0.00668823
1293.86	0.000518799	0.00322601
1296.2	-0.69751	-0.0170105
1298.54	-0.000454712	0.00668671
1300.86	-0.000491333	0.00323303
1303.2	-0.697784	-0.0170074
1305.54	-0.000509644	0.00667725
1307.86	0.00110168	0.00323517
1310.2	-0.697479	-0.0170074
1312.54	-0.00090332	0.00667542
1314.86	-7.01904e-05	0.00324615
1317.2	-0.699402	-0.0169922
1319.54	-0.000100708	0.00666321
1321.86	-0.000494385	0.00326202
1324.2	-0.697906	-0.0169861
1326.54	0.000881958	0.00665283
1328.86	-0.000738525	0.00326324
1331.2	-0.697632	-0.016983
1333.54	-0.000476074	0.00665009
1335.86	-0.000741577	0.00327362
1338.2	-0.69931	-0.0169739
1340.54	6.71387e-05	0.00664673
1342.86	0.000317383	0.00326874
1345.2	-0.69809	-0.01698
1347.54	0.000473022	0.00663269
1349.86	0.000735474	0.00327606
1352.2	-0.699432	-0.0169678
1354.54	-0.000271606	0.00663116
1356.86	0.000222778	0.00328674
1359.2	-0.698273	-0.0169678
1361.54	0.000592041	0.00661896
1363.86	0.000921631	0.00328674
1366.2	-0.698212	-0.01698
1368.54	0.000134277	0.00662201
1370.86	-0.000845337	0.00329742
1373.2	-0.69873	-0.0169769
1375.54	0.000558472	0.00661011
1377.86	0.00116272	0.00329529
1380.2	-0.697845	-0.0169769
1382.54	-0.000775146	0.00661743
1384.86	0.000192261	0.00330505
1387.2	-0.69931	-0.0169495
1389.54	0.000518799	0.00660278
1391.86	-0.000296021	0.0033197
1394.2	-0.699066	-0.0169556
1396.54	0.00050354	0.00659882
1398.86	-0.000717163	0.00332794
1401.2	-0.699158	-0.0169464
1403.54	-0.000564575	0.00659546
1405.86	-0.000244141	0.00332642
1408.2	-0.698212	-0.0169373
1410.54	0.000888062	0.00658264
1412.86	-0.000405884	0.00333221
1415.2	-0.699158	-0.0169464
1417.54	-0.000564575	0.00658569
1419.86	-0.000518799	0.00334503
1422.2	-0.698151	-0.0169464
1424.54	-0.000473022	0.00658325
1426.86	0.000424194	0.00334656
1429.2	-0.698486	-0.0169434
1431.54	-0.000827026	0.00658051
1433.86	-0.000567627	0.00335846
1436.2	-0.697479	-0.0169403
1438.54	0.000286865	0.00656616
1440.86	0.00111084	0.00335449
1443.2	-0.699158	-0.0169159
1445.54	-0.00085144	0.00656738
1447.86	0.00038147	0.00336365
1450.2	-0.699402	-0.0169159
1452.54	-0.000390625	0.00656281
1454.86	0.00102234	0.00336273
1457.2	-0.699371	-0.0169189
1459.54	0.000140381	0.00655914
1461.86	-0.000695801	0.00337952
1464.2	-0.69928	-0.0169098
1466.54	-1.52588e-05	0.00655182
1468.86	-0.000384521	0.00338074
1471.2	-0.69931	-0.0169128
1473.54	0.000811768	0.00653778
1475.86	0.00085144	0.00338013
1478.2	-0.699402	-0.0169006
1480.54	0.00083313	0.00653168
1482.86	0.000738525	0.00338989
1485.2	-0.699432	-0.0168976
1487.54	-0.000308228	0.0065387
1489.86	-0.000637817	0.00340363
1492.2	-0.697723	-0.0169067
1494.54	0.00102234	0.00652374
1496.86	-0.000216675	0.00340942
1499.2	-0.698883	-0.0168915
1501.54	0.00020752	0.00652283
1503.86	0.00090332	0.00340485
1506.2	-0.698303	-0.0168854
1508.54	-0.000531006	0.00652374
1510.86	0.000421143	0.003414
1513.2	-0.699402	-0.0168884
1515.54	-8.23975e-05	0.00651184
1517.86	-0.000762939	0.00342407
1520.2	-0.698334	-0.0168884
1522.54	-0.000750732	0.00651581
1524.86	0.000341797	0.00342468
1527.2	-0.698853	-0.0168701
1529.54	-0.000283813	0.00650757
1531.86	-0.000549316	0.0034317
1534.2	-0.69931	-0.0168823
1536.54	-0.000436401	0.00650665
1538.86	-0.00071106	0.00343872
1541.2	-0.697845	-0.0168823
1543.54	-0.000790405	0.00649963
1545.86	-0.000268555	0.00343597
1548.2	-0.699066	-0.016864
1550.54	0.00116272	0.0064856
1552.86	-0.000442505	0.00345123
1555.2	-0.69754	-0.0168732
1557.54	-0.000830078	0.00649017
1559.86	0.000817871	0.00344177
1562.2	-0.697876	-0.016861
1564.54	-6.71387e-05	0.00647919
1566.86	-0.000317383	0.00345825
1569.2	-0.697449	-0.016861
1571.54	0.000161743	0.00647797
1573.86	0.000598145	0.00345886
1576.2	-0.699005	-0.0168549
1578.54	0.000924683	0.00646576
1580.86	0.000152588	0.00346191
1583.2	-0.698883	-0.0168427
1585.54	-0.000827026	0.006474
1587.86	0.000363159	0.00346863
1590.16	0.000817871	0.00185913