Folder: electrochromicfilms/Edgar/20240607/20240607/electrodeposition_pulsed_potential_20240607_D

File: OCP_1
Time (s)	WE(1).Potential (V)
2.05822	0.503235
3.05822	0.503845
4.05822	0.50415
5.05822	0.504456
6.05822	0.504761
7.05822	0.505371
8.05822	0.505676
9.05822	0.505981
10.0582	0.506287
11.0582	0.506592
12.0582	0.507202
13.0582	0.507507
14.0582	0.5078125
15.0582	0.508118
16.0582	0.508423
17.0582	0.508728
18.0582	0.509033
19.0582	0.509644
20.0582	0.509949
21.0582	0.510254
22.0582	0.510559
23.0582	0.510864
24.0582	0.511169
25.0582	0.511475
26.0582	0.51178
27.0582	0.512085
28.0582	0.51239
29.0582	0.512695
30.0582	0.513
31.0582	0.513306
32.0582	0.513611
33.0582	0.513916
34.0582	0.514221
35.0582	0.514526
36.0582	0.514832
37.0582	0.515137
38.0582	0.515442
39.0582	0.515442
40.0582	0.515747
41.0582	0.516052
42.0582	0.516357
43.0582	0.516663
44.0582	0.516968
45.0582	0.517273
46.0582	0.517578
47.0582	0.517883
48.0582	0.518188
49.0582	0.518494
50.0582	0.518494
51.0582	0.518799
52.0582	0.519104
53.0582	0.519409
54.0582	0.519714
55.0582	0.52002
56.0582	0.52002
57.0582	0.520325
58.0582	0.52063
59.0582	0.520935
60.0582	0.52124
61.0582	0.521545
62.0582	0.521545
63.0582	0.521851
64.0582	0.522156
65.0582	0.522461
66.0582	0.522766
67.0582	0.523071
68.0582	0.523376
69.0582	0.523682
70.0582	0.523987
71.0582	0.523987
72.0582	0.524292
73.0582	0.524597
74.0582	0.524902
75.0582	0.525208
76.0582	0.525513
77.0582	0.525513
78.0582	0.525818
79.0582	0.526123
80.0582	0.526428
81.0582	0.526733
82.0582	0.527039
83.0582	0.527039
84.0582	0.527344
85.0582	0.527649
86.0582	0.527954
87.0582	0.528259
88.0582	0.528259
89.0582	0.528564
90.0582	0.52887
91.0582	0.529175
92.0582	0.529175
93.0582	0.52948
94.0582	0.529785
95.0582	0.53009
96.0582	0.53009
97.0582	0.530396
98.0582	0.530701
99.0582	0.530701
100.058	0.531006
101.058	0.531311
102.058	0.531311
103.058	0.531616
104.058	0.531921
105.058	0.531921
106.058	0.531921
107.058	0.532227
108.058	0.532227
109.058	0.532532
110.058	0.532837
111.058	0.533142
112.058	0.533142
113.058	0.533447
114.058	0.533752
115.058	0.533752
116.058	0.534058
117.058	0.534363
118.058	0.534668
119.058	0.534668
120.058	0.534973
121.058	0.535278
122.058	0.535583
123.058	0.535583
124.058	0.535889
125.058	0.536194
126.058	0.536499
127.058	0.536499
128.058	0.536804
129.058	0.537109
130.058	0.537415
131.058	0.537415
132.058	0.53772
133.058	0.538025
134.058	0.53833
135.058	0.53833
136.058	0.538635
137.058	0.53894
138.058	0.53894
139.058	0.539246
140.058	0.539551
141.058	0.539551
142.058	0.539856
143.058	0.540161
144.058	0.540161
145.058	0.540466
146.058	0.540771
147.058	0.540771
148.058	0.541077
149.058	0.541382
150.058	0.541382
151.058	0.541687
152.058	0.541992
153.058	0.541992
154.058	0.542297
155.058	0.542603
156.058	0.542603
157.058	0.542908
158.058	0.543213
159.058	0.543213
160.058	0.543518
161.058	0.543518
162.058	0.543823
163.058	0.544128
164.058	0.544128
165.058	0.544434
166.058	0.544434
167.058	0.544739
168.058	0.545044
169.058	0.545044
170.058	0.545349
171.058	0.545349
172.058	0.545654
173.058	0.545959
174.058	0.545959
175.058	0.546265
176.058	0.546265
177.058	0.54657
178.058	0.54657
179.058	0.546875
180.058	0.54718
181.058	0.54718

File: OCP_3
Time (s)	WE(1).Potential (V)
3726.09	0.0238068
3727.09	0.0354767
3728.09	0.0464233
3729.09	0.0567627
3730.09	0.0665588
3731.09	0.0758362
3732.09	0.0846252
3733.09	0.0929565
3734.09	0.100861
3735.09	0.108368
3736.09	0.115509
3737.09	0.122284
3738.09	0.128723
3739.09	0.134857
3740.09	0.140717
3741.09	0.146301
3742.09	0.151611
3743.09	0.156677
3744.09	0.16153
3745.09	0.166168
3746.09	0.170624
3747.09	0.174896
3748.09	0.179016
3749.09	0.182922
3750.09	0.186737
3751.09	0.190399
3752.09	0.193939
3753.09	0.197357
3754.09	0.200653
3755.09	0.203857
3756.09	0.20697
3757.09	0.209991
3758.09	0.212952
3759.09	0.21582
3760.09	0.218628
3761.09	0.221344
3762.09	0.22403
3763.09	0.226654
3764.09	0.229218
3765.09	0.23175
3766.09	0.234253
3767.09	0.236694
3768.09	0.239136
3769.09	0.241516
3770.09	0.243866
3771.09	0.246185
3772.09	0.248505
3773.09	0.250793
3774.09	0.253052
3775.09	0.25531
3776.09	0.257538
3777.09	0.259766
3778.09	0.261993
3779.09	0.264221
3780.09	0.266449
3781.09	0.268677
3782.09	0.270905
3783.09	0.273132
3784.09	0.275391
3785.09	0.277649
3786.09	0.279907
3787.09	0.282196
3788.09	0.284485
3789.09	0.286804
3790.09	0.289154
3791.09	0.291504
3792.09	0.293915
3793.09	0.296356
3794.09	0.298828
3795.09	0.301331
3796.09	0.303864
3797.09	0.306427
3798.09	0.309052
3799.09	0.311707
3800.09	0.314423
3801.09	0.3172
3802.09	0.320007
3803.09	0.322876
3804.09	0.325836
3805.09	0.328827
3806.09	0.331879
3807.09	0.334991
3808.09	0.338165
3809.09	0.3414
3810.09	0.344666
3811.09	0.348022
3812.09	0.35141
3813.09	0.354858
3814.09	0.358337
3815.09	0.361847
3816.09	0.365387
3817.09	0.368958
3818.09	0.372559
3819.09	0.37616
3820.09	0.379791
3821.09	0.383453
3822.09	0.387085
3823.09	0.390747
3824.09	0.394409
3825.09	0.398102
3826.09	0.401764
3827.09	0.405457
3828.09	0.409149
3829.09	0.412872
3830.09	0.416595
3831.09	0.420349
3832.09	0.424103
3833.09	0.427856
3834.09	0.431641
3835.09	0.435455
3836.09	0.43927
3837.09	0.443115
3838.09	0.446991
3839.09	0.450867
3840.09	0.454742
3841.09	0.458649
3842.09	0.462585
3843.09	0.466492
3844.09	0.470428
3845.09	0.474335
3846.09	0.478271
3847.09	0.482147
3848.09	0.485992
3849.09	0.489807
3850.09	0.493561
3851.09	0.497284
3852.09	0.501099
3853.09	0.504761
3854.09	0.508118
3855.09	0.511475
3856.09	0.515137
3857.09	0.518188
3858.09	0.52124
3859.09	0.523987
3860.09	0.526428
3861.09	0.529175
3862.09	0.531616
3863.09	0.534363
3864.09	0.536499
3865.09	0.53894
3866.09	0.541382
3867.09	0.542908
3868.09	0.544434
3869.09	0.545654
3870.09	0.546875
3871.09	0.548096
3872.09	0.549316
3873.09	0.550232
3874.09	0.551453
3875.09	0.552368
3876.09	0.553284
3877.09	0.554199
3878.09	0.55481
3879.09	0.555725
3880.09	0.556641
3881.09	0.558472
3882.09	0.559998
3883.09	0.561218
3884.09	0.562439
3885.09	0.563049
3886.09	0.563965
3887.09	0.56488
3888.09	0.565491
3889.09	0.566711
3890.09	0.567932
3891.09	0.568542
3892.09	0.568542
3893.09	0.568237
3894.09	0.567932
3895.09	0.567932
3896.09	0.567627
3897.09	0.567627
3898.09	0.567627
3899.09	0.567627
3900.09	0.567627
3901.09	0.567932
3902.09	0.567932
3903.09	0.567932
3904.09	0.568237
3905.09	0.568237

File: pulses_0_to_1000.txt
Time (s)	WE(1).Potential (V)	WE(1).Current (A)
181.635	-0.699463	-0.00305206
183.975	-0.000170898	0.000173492
186.295	0.0006073	-8.71582e-05
188.635	-0.698822	-0.00839233
190.975	-9.15527e-06	0.00115021
193.295	0.000549316	-0.000236359
195.635	-0.698914	-0.0110901
197.975	0.000634766	0.00388336
200.295	-4.88281e-05	-0.00024823
202.635	-0.698334	-0.0125885
204.975	-9.76562e-05	0.00574799
207.295	0.00071106	-0.000232391
209.635	-0.698151	-0.0135468
211.975	-0.000241089	0.00685028
214.295	0.000204468	-0.00017807
216.635	-0.698822	-0.0142426
218.975	-0.000143433	0.00753479
221.295	0.000152588	-9.11865e-05
223.635	-0.698944	-0.01474
225.975	3.05176e-06	0.00796814
228.295	-0.000283813	1.61438e-05
230.635	-0.698059	-0.0151245
232.975	-0.000570679	0.00825195
235.295	0.000720215	0.000118988
237.635	-0.698547	-0.0154236
239.975	-0.000341797	0.00846252
242.295	0.000393677	0.000224457
244.635	-0.698853	-0.0156799
246.975	9.76562e-05	0.00861816
249.295	-0.000280762	0.0003237
251.635	-0.697815	-0.015918
253.975	-0.000701904	0.00875854
256.295	7.01904e-05	0.000405609
258.635	-0.699066	-0.0160828
260.975	-0.000604248	0.00884705
263.295	-0.000473022	0.000490295
265.635	-0.699158	-0.0162354
267.975	9.76562e-05	0.00890808
270.295	0.000860596	0.000560303
272.635	-0.698853	-0.0163208
274.975	0.000149536	0.0089386
277.295	0.000442505	0.00063385
279.635	-0.698822	-0.0164246
281.975	-0.000195313	0.00896301
284.295	0.000643921	0.000699463
286.635	-0.698547	-0.0165283
288.975	0.000521851	0.00900574
291.295	-0.000119019	0.000767517
293.635	-0.698792	-0.016626
295.975	-0.000680542	0.00904236
298.295	0.000546265	0.000821838
300.635	-0.697815	-0.0167267
302.975	4.88281e-05	0.00907288
305.295	0.000527954	0.000882568
307.635	-0.698853	-0.0168091
309.975	-0.000506592	0.00909119
312.295	0.000119019	0.000945129
314.635	-0.697998	-0.0168945
316.975	-0.000326538	0.0091217
319.295	-0.000180054	0.00101135
321.635	-0.698792	-0.0169708
323.975	-0.000698853	0.00916748
326.295	0.000256348	0.00107544
328.635	-0.697998	-0.0170593
330.975	-0.000390625	0.00917664
333.295	0.000875854	0.00113831
335.635	-0.697662	-0.0171265
337.975	-0.000701904	0.00921936
340.295	-0.000363159	0.00121338
342.635	-0.697754	-0.0171936
344.975	0.000253296	0.00923157
347.295	0.000650024	0.00126648
349.635	-0.697784	-0.0172577
351.975	0.000518799	0.00923767
354.295	0.000854492	0.00132446
356.635	-0.698944	-0.0173096
358.975	-0.000131226	0.00923462
361.295	-0.000454712	0.00138275
363.635	-0.698944	-0.0173676
365.975	0.000491333	0.00924072
368.295	9.76562e-05	0.00142822
370.635	-0.698914	-0.0174225
372.975	-6.10352e-06	0.00922852
375.295	0.000109863	0.00147583
377.635	-0.698334	-0.0174744
379.975	0.000488281	0.00922546
382.295	-1.83105e-05	0.00152588
384.635	-0.698364	-0.0175446
386.975	-0.000637817	0.00923157
389.295	-3.66211e-05	0.00157654
391.635	-0.698822	-0.0175873
393.975	-0.000631714	0.00922852
396.295	-0.000192261	0.00162811
398.635	-0.699005	-0.0176361
400.975	0.000402832	0.00922241
403.295	4.57764e-05	0.0016745
405.635	-0.698761	-0.0176727
407.975	0.000149536	0.00921326
410.295	0.000424194	0.00171692
412.635	-0.697845	-0.0177216
414.975	0.00039978	0.00921936
417.295	0.000259399	0.00177094
419.635	-0.698395	-0.0177582
421.975	0.00027771	0.00921326
424.295	0.000189209	0.00182251
426.635	-0.697968	-0.0177948
428.975	0.000354004	0.00921021
431.295	0.000268555	0.00187012
433.635	-0.698669	-0.0178253
435.975	0.000387573	0.00921631
438.295	0.000604248	0.00191895
440.635	-0.698792	-0.017868
442.975	0.00022583	0.00921021
445.295	0.000494385	0.00197083
447.635	-0.698029	-0.0178925
449.975	0.000357056	0.00921326
452.295	-3.35693e-05	0.00201752
454.635	-0.697754	-0.017926
456.975	-0.000308228	0.00920105
459.295	0.00072937	0.00205597
461.635	-0.69873	-0.0179504
463.975	-0.000311279	0.00920105
466.295	-7.32422e-05	0.00210114
468.635	-0.69873	-0.0179871
470.975	-0.000250244	0.00918579
473.295	0.000100708	0.00213898
475.635	-0.698181	-0.0180267
477.975	-0.000387573	0.00918884
480.295	-0.000402832	0.00217621
482.635	-0.697845	-0.0180511
484.975	-0.000259399	0.00917664
487.295	0.000201416	0.00221283
489.635	-0.697845	-0.0180756
491.975	7.93457e-05	0.00916138
494.295	-0.000411987	0.0022525
496.635	-0.698944	-0.0181213
498.975	-0.000582886	0.00917358
501.295	0.000802612	0.00228058
503.635	-0.697784	-0.0181854
505.975	0.000201416	0.00917664
508.295	0.000518799	0.00231812
510.635	-0.699005	-0.0182373
512.975	-0.000735474	0.00920105
515.295	-0.000366211	0.00236267
517.635	-0.698883	-0.0183044
519.975	0.000268555	0.009198
522.295	-0.000402832	0.00239716
524.635	-0.698242	-0.0183533
526.975	-0.000119019	0.009198
529.295	0.000784302	0.00242218
531.635	-0.69809	-0.0183716
533.975	-0.000491333	0.00918884
536.295	-0.000378418	0.0024649
538.635	-0.6987	-0.0183899
540.975	-0.000695801	0.00917664
543.295	0.000759888	0.0024884
545.635	-0.698029	-0.0184113
547.975	0.000360107	0.00914612
550.295	0.000280762	0.00252136
552.635	-0.698425	-0.0184021
554.975	-0.000570679	0.00914001
557.295	-0.000463867	0.00255493
559.635	-0.698761	-0.018396
561.975	-0.00055542	0.00910645
564.295	0.000448608	0.00258087
566.635	-0.697632	-0.018399
568.975	0.000234985	0.00908813
571.295	0.000808716	0.002612
573.635	-0.697662	-0.0184479
575.975	-0.000656128	0.00911255
578.295	0.000930786	0.00264648
580.635	-0.697693	-0.0185028
582.975	0.000289917	0.00913391
585.295	2.74658e-05	0.00268829
587.635	-0.697662	-0.0185577
589.975	-0.000402832	0.00913696
592.295	0.000311279	0.00271606
594.635	-0.69873	-0.018573
596.975	0.000125122	0.00913391
599.295	-3.05176e-05	0.00275452
601.635	-0.6987	-0.0185913
603.975	-0.000726318	0.00914307
606.295	-0.000411987	0.00278564
608.635	-0.698944	-0.0186035
610.975	-0.000634766	0.00913696
613.295	0.00083313	0.00280884
615.635	-0.698914	-0.0186157
617.975	0.000558472	0.00912476
620.295	0.000567627	0.00284302
622.635	-0.697998	-0.018634
624.975	-0.000616455	0.0091217
627.295	0.000860596	0.00286835
629.635	-0.698547	-0.0186401
631.975	-0.00067749	0.0091095
634.295	-0.000152588	0.00290497
636.635	-0.698456	-0.0186493
638.975	0.000244141	0.00910034
641.295	0.000842285	0.00292542
643.635	-0.698303	-0.0186676
645.975	-0.000216675	0.00908508
648.295	-0.000515747	0.00295868
650.635	-0.698822	-0.0186798
652.975	-0.000756836	0.00908508
655.295	0.00065918	0.00297821
657.635	-0.698853	-0.0186768
659.975	0.00027771	0.00907288
662.295	0.000665283	0.00300446
664.635	-0.698914	-0.0186951
666.975	-0.000732422	0.00906982
669.295	0.000708008	0.00302948
671.636	-0.697968	-0.018692
673.976	-0.00085144	0.00905151
676.296	0.000311279	0.0030603
678.636	-0.698029	-0.0187012
680.976	0.000241089	0.00903625
683.296	0.000204468	0.00307831
685.636	-0.698486	-0.0187103
687.976	-0.000692749	0.0090271
690.296	0.000405884	0.00309998
692.636	-0.69812	-0.0187012
694.976	0.000408936	0.00900269
697.296	-0.000189209	0.00312958
699.636	-0.698029	-0.0187103
701.976	-0.000756836	0.00900269
704.296	-0.000366211	0.00314911
706.636	-0.698792	-0.0187164
708.976	-2.44141e-05	0.00899048
711.296	-0.000143433	0.00317505
713.636	-0.698395	-0.0187195
715.976	0.000524902	0.00896912
718.296	0.000140381	0.0031955
720.636	-0.698761	-0.0187195
722.976	0.000509644	0.00895996
725.296	-0.00032959	0.00321716
727.636	-0.697754	-0.0187286
729.976	0.000369263	0.00895691
732.296	0.00065918	0.00323029
734.636	-0.697632	-0.0187225
736.976	0.000442505	0.0089325
739.296	-0.000161743	0.0032605
741.636	-0.698334	-0.0187347
743.976	0.000454712	0.00892029
746.296	-0.000448608	0.00328278
748.636	-0.697693	-0.0187317
750.976	0.00032959	0.00891418
753.296	0.000253296	0.00329895
755.636	-0.698669	-0.0187256
757.976	-6.40869e-05	0.00890808
760.296	-0.000430298	0.00331787
762.636	-0.699005	-0.0187439
764.976	-0.00020752	0.00888367
767.296	2.74658e-05	0.00333984
769.636	-0.697723	-0.0187531
771.976	-0.000592041	0.00889587
774.296	0.000402832	0.00335602
776.636	-0.698639	-0.0187653
778.976	0.000335693	0.00888977
781.296	0.00065918	0.00337402
783.636	-0.698822	-0.0187805
785.976	0.000256348	0.00887756
788.296	-0.000268555	0.00340027
790.636	-0.698395	-0.0187805
792.976	0.000387573	0.00887451
795.296	0.000280762	0.00341736
797.636	-0.698792	-0.0187805
799.976	-0.000439453	0.00887756
802.296	-0.000109863	0.00343353
804.636	-0.698425	-0.0187988
806.976	-0.000360107	0.00887146
809.296	0.000268555	0.00345215
811.636	-0.697632	-0.0187897
813.976	-0.000738525	0.00884094
816.296	0.000665283	0.00346802
818.636	-0.698761	-0.0187836
820.976	-0.00065918	0.00884399
823.296	0.000265503	0.00349121
825.636	-0.698761	-0.0187927
827.976	0.000210571	0.00883179
830.296	0.000445557	0.00350555
832.636	-0.69812	-0.0187866
834.976	0.000430298	0.00881348
837.296	0.000796509	0.00351776
839.636	-0.698273	-0.0187836
841.976	0.000427246	0.00880432
844.296	-0.000512695	0.00354126
846.636	-0.697662	-0.0187927
848.976	0.000506592	0.00879517
851.296	-0.00032959	0.00355621
853.636	-0.698059	-0.0188019
855.976	3.05176e-05	0.00879211
858.296	0.000198364	0.00356628
860.636	-0.698822	-0.0187958
862.976	0.000500488	0.00877075
865.296	3.05176e-06	0.0035791
867.636	-0.698669	-0.0188202
869.976	0.000534058	0.0087616
872.296	-0.000311279	0.00359863
874.636	-0.698853	-0.0188324
876.976	-3.05176e-06	0.0087677
879.296	0.000131226	0.00360596
881.596	4.27246e-05	0.00137787

File: pulses_1000_to_2000.txt
Time (s)	WE(1).Potential (V)	WE(1).Current (A)
890.124	-0.697571	-0.0202148
892.464	0.000454712	0.0085968
894.784	0.000613403	0.00354797
897.124	-0.697754	-0.0188568
899.464	-0.000671387	0.00869141
901.784	0.000497437	0.00361084
904.124	-0.698029	-0.0188385
906.464	7.93457e-05	0.00870361
908.784	-0.00017395	0.0036441
911.124	-0.697876	-0.0188263
913.464	-0.000125122	0.00870972
915.784	0.000350952	0.00366211
918.124	-0.698486	-0.0188232
920.464	-9.15527e-06	0.00871887
922.784	0.000888062	0.00368439
925.124	-0.698212	-0.0188202
927.464	0.000247192	0.00869751
929.784	-5.18799e-05	0.00370575
932.124	-0.698334	-0.0188232
934.464	0.000509644	0.00869751
936.784	-0.000299072	0.00372375
939.124	-0.69873	-0.018811
941.464	0.000247192	0.00868835
943.784	-6.40869e-05	0.00373322
946.124	-0.697601	-0.018811
948.464	-0.000442505	0.00869446
950.784	-0.000335693	0.00374847
953.124	-0.698944	-0.0187988
955.464	0.000134277	0.00866699
957.784	0.000686646	0.00375519
960.124	-0.697754	-0.0188049
962.464	-0.000723267	0.00866394
964.784	0.000247192	0.00376892
967.124	-0.698883	-0.0187927
969.464	-0.000231934	0.00866089
971.784	0.000466919	0.00378387
974.124	-0.698303	-0.0187958
976.464	-0.000476074	0.00863953
978.784	0.000656128	0.0037912
981.124	-0.698425	-0.0187927
983.464	-0.000836182	0.00863953
985.784	-0.000204468	0.00381409
988.124	-0.698517	-0.0187866
990.464	0.000631714	0.00863037
992.784	-0.00039978	0.00382202
995.124	-0.697937	-0.0187866
997.464	0.000415039	0.00861206
999.784	-0.00043335	0.00383789
1002.12	-0.698273	-0.0187744
1004.46	0.000567627	0.00861206
1006.78	0.00050354	0.00384613
1009.12	-0.698883	-0.0187683
1011.46	-0.000762939	0.00860596
1013.78	0.00072937	0.00385498
1016.12	-0.698914	-0.0187775
1018.46	-0.000219727	0.0085907
1020.78	0.000177002	0.00387054
1023.12	-0.698914	-0.0187714
1025.46	0.000158691	0.0085907
1027.78	0.000286865	0.00388428
1030.12	-0.698975	-0.0187805
1032.46	0.000167847	0.00859375
1034.78	-0.000262451	0.00390198
1037.12	-0.698822	-0.0188019
1039.46	0.000448608	0.00859985
1041.78	-0.000100708	0.00391205
1044.12	-0.698395	-0.0188232
1046.46	0.000164795	0.00858765
1048.78	0.000808716	0.00391876
1051.12	-0.697723	-0.0188324
1053.46	-0.000244141	0.0085907
1055.78	0.000665283	0.00393097
1058.12	-0.698273	-0.0188354
1060.46	-0.000323486	0.0085968
1062.78	-0.000460815	0.00394745
1065.12	-0.697601	-0.0188385
1067.46	0.000396729	0.00858459
1069.78	-0.000299072	0.00395599
1072.12	-0.698456	-0.0188324
1074.46	-0.000167847	0.0085907
1076.78	-0.000296021	0.00396606
1079.12	-0.69809	-0.0188416
1081.46	0.000415039	0.00857544
1083.78	0.000631714	0.0039743
1086.12	-0.698547	-0.0188446
1088.46	0.000531006	0.00856628
1090.78	9.46045e-05	0.00399048
1093.12	-0.697662	-0.0188354
1095.46	-0.000576782	0.00856018
1097.78	-0.000436401	0.00400116
1100.12	-0.698608	-0.0188232
1102.46	-0.000476074	0.00852966
1104.78	-0.000280762	0.00400726
1107.12	-0.697723	-0.0188293
1109.46	-0.00062561	0.00853577
1111.78	0.000350952	0.00401062
1114.12	-0.698364	-0.0188049
1116.46	0.000430298	0.0085083
1118.78	0.000717163	0.00402008
1121.12	-0.698486	-0.018811
1123.46	0.000234985	0.00851135
1125.78	-0.000436401	0.00403595
1128.12	-0.697571	-0.0188232
1130.46	-0.000704956	0.00851746
1132.78	0.000491333	0.00404266
1135.12	-0.698242	-0.018808
1137.46	0.000262451	0.00850525
1139.78	0.000784302	0.00404694
1142.12	-0.69754	-0.0188171
1144.46	-0.000643921	0.00849915
1146.78	0.000442505	0.00404785
1149.12	-0.697723	-0.0188141
1151.46	-3.96729e-05	0.00847473
1153.78	-1.83105e-05	0.00405518
1156.12	-0.698486	-0.0188049
1158.46	-0.000610352	0.00846863
1160.78	-0.000296021	0.00407013
1163.12	-0.697571	-0.018808
1165.46	-0.000671387	0.00845642
1167.78	-0.000354004	0.00407928
1170.12	-0.698578	-0.018808
1172.46	0.000476074	0.00844421
1174.78	0.000183105	0.00408508
1177.12	-0.697815	-0.0187836
1179.46	-0.000445557	0.00844421
1181.78	9.15527e-06	0.00409637
1184.12	-0.697693	-0.0187775
1186.46	-0.000167847	0.00842896
1188.78	0.000469971	0.00410919
1191.12	-0.698578	-0.0187744
1193.46	-0.000552368	0.00843506
1195.78	8.23975e-05	0.00412231
1198.12	-0.699005	-0.0187561
1200.46	-0.000515747	0.0084259
1202.78	-0.000421143	0.00413361
1205.12	-0.698395	-0.0187439
1207.46	-0.000619507	0.0084198
1209.78	0.000219727	0.00414185
1212.12	-0.698944	-0.0187653
1214.46	-0.000299072	0.0084137
1216.78	0.000308228	0.00414978
1219.12	-0.697876	-0.0187531
1221.46	0.00039978	0.00841675
1223.78	0.000387573	0.00415741
1226.12	-0.69751	-0.0187622
1228.46	0.000466919	0.00840759
1230.78	-3.96729e-05	0.00416809
1233.12	-0.697601	-0.0187531
1235.46	0.000164795	0.00840454
1237.78	-0.000445557	0.0041806
1240.12	-0.697571	-0.0187531
1242.46	0.000213623	0.00838623
1244.78	-0.000231934	0.00418427
1247.12	-0.698364	-0.0187378
1249.46	0.000558472	0.00837402
1251.78	-2.44141e-05	0.00418854
1254.12	-0.698456	-0.0187256
1256.46	-0.00071106	0.00837097
1258.78	0.000772095	0.00419312
1261.12	-0.698273	-0.0187195
1263.46	-0.000479126	0.00836182
1265.78	0.000839233	0.00419678
1268.12	-0.698944	-0.0187103
1270.46	0.000448608	0.00834656
1272.78	-0.000396729	0.00421082
1275.12	-0.697906	-0.0187073
1277.46	-0.000540161	0.00833435
1279.78	0.000314331	0.0042099
1282.12	-0.697693	-0.0187134
1284.46	0.000149536	0.0083374
1286.78	0.000585937	0.00421326
1289.12	-0.697876	-0.0187042
1291.46	-3.05176e-06	0.00831299
1293.78	-0.00055542	0.00422974
1296.12	-0.698303	-0.0186981
1298.46	-0.000100708	0.00830688
1300.78	0.000875854	0.00422913
1303.12	-0.698242	-0.0186798
1305.46	0.000564575	0.00830688
1307.78	0.000228882	0.00423737
1310.12	-0.698944	-0.0186737
1312.46	-0.000317383	0.00828552
1314.78	0.000762939	0.00423676
1317.12	-0.698608	-0.0186646
1319.46	-0.000247192	0.00827026
1321.78	0.000741577	0.00424164
1324.12	-0.698181	-0.0186523
1326.46	6.10352e-06	0.00826111
1328.78	0.000515747	0.004245
1331.12	-0.699005	-0.018631
1333.46	0.000292969	0.0082428
1335.78	0.000668335	0.00424988
1338.12	-0.699036	-0.0186188
1340.46	0.000518799	0.00823364
1342.78	-0.000424194	0.00426086
1345.12	-0.698669	-0.0186096
1347.46	-0.000445557	0.00822449
1349.78	-0.000137329	0.00426392
1352.12	-0.698242	-0.0186005
1354.46	-0.000115967	0.00820923
1356.78	0.000186157	0.00426178
1359.12	-0.698669	-0.0186066
1361.46	-0.000738525	0.00820618
1363.78	-9.15527e-06	0.00426453
1366.12	-0.698486	-0.0185913
1368.46	0.000561523	0.008203125
1370.78	-0.0006073	0.00428192
1373.12	-0.697845	-0.0186157
1375.46	0.000408936	0.00820923
1377.78	-0.000299072	0.00428894
1380.12	-0.697693	-0.018631
1382.46	0.000473022	0.00819702
1384.78	0.000570679	0.00429077
1387.12	-0.697571	-0.018634
1389.46	-0.000650024	0.00820923
1391.78	0.000137329	0.00430634
1394.12	-0.698792	-0.0186401
1396.46	-0.000595093	0.00821838
1398.78	2.74658e-05	0.00431763
1401.12	-0.697968	-0.0186768
1403.46	0.000286865	0.00822754
1405.78	-0.000387573	0.00433258
1408.12	-0.698944	-0.0186798
1410.46	-0.000686646	0.0082428
1412.78	-0.000488281	0.00433838
1415.12	-0.697693	-0.0187134
1417.46	0.000509644	0.00823975
1419.78	-0.000393677	0.00434784
1422.12	-0.698853	-0.0187012
1424.46	-0.000192261	0.00822754
1426.78	0.000396729	0.00434937
1429.12	-0.698975	-0.0186951
1431.46	0.000552368	0.00821838
1433.78	0.000799561	0.00435272
1436.12	-0.697693	-0.0187073
1438.46	0.000363159	0.00822144
1440.78	0.000689697	0.00436157
1443.12	-0.698303	-0.0187103
1445.46	4.88281e-05	0.00821228
1447.78	0.000109863	0.00436737
1450.12	-0.69754	-0.0186981
1452.46	0.000134277	0.00822144
1454.78	-1.83105e-05	0.00437408
1457.12	-0.69809	-0.0187042
1459.46	-0.000286865	0.00821838
1461.78	3.96729e-05	0.00438568
1464.12	-0.698914	-0.018692
1466.46	-0.000567627	0.00819092
1468.78	0.000567627	0.00438629
1471.12	-0.697906	-0.0186951
1473.46	0.000631714	0.00819397
1475.78	0.000744629	0.0043869
1478.12	-0.698212	-0.0186859
1480.46	-0.000778198	0.00817871
1482.78	0.000784302	0.00439117
1485.12	-0.697845	-0.0186646
1487.46	0.000445557	0.0081665
1489.78	-0.000115967	0.00440247
1492.12	-0.697723	-0.0186646
1494.46	0.000228882	0.0081604
1496.78	4.27246e-05	0.00440643
1499.12	-0.697845	-0.0186584
1501.46	0.000579834	0.00815125
1503.78	0.000808716	0.00440216
1506.12	-0.698242	-0.0186432
1508.46	0.000650024	0.00814819
1510.78	-0.000454712	0.00441681
1513.12	-0.698944	-0.0186218
1515.46	0.000576782	0.00813599
1517.78	0.000323486	0.00441376
1520.12	-0.697906	-0.0186005
1522.46	-0.0003479	0.00815125
1524.78	-0.00045166	0.00442505
1527.12	-0.699005	-0.0186249
1529.46	-0.000762939	0.00813599
1531.78	0.000369263	0.00442291
1534.12	-0.698822	-0.0186066
1536.46	-0.000772095	0.00812378
1538.78	-0.000161743	0.00442719
1541.12	-0.698944	-0.0186035
1543.46	-0.000735474	0.00811157
1545.78	0.000717163	0.00443024
1548.12	-0.698425	-0.0186066
1550.46	-0.0006073	0.00809631
1552.78	0.000106812	0.0044397
1555.12	-0.697632	-0.0185913
1557.46	-0.000363159	0.00809937
1559.79	0.000369263	0.00443848
1562.13	-0.697662	-0.0185699
1564.47	-0.000701904	0.00808105
1566.79	-0.00043335	0.00444763
1569.13	-0.697632	-0.0185699
1571.47	-0.000216675	0.008078
1573.79	-0.000109863	0.0044455
1576.13	-0.697815	-0.0185577
1578.47	-0.000741577	0.0080658
1580.79	-9.76562e-05	0.0044455
1583.13	-0.698914	-0.0185516
1585.47	-0.000604248	0.00805054
1587.79	0.000720215	0.0044516
1590.09	-4.88281e-05	0.00253632