Folder: electrochromicfilms/Edgar/20240607/20240607/electrodeposition_pulsed_potential_20240607_C (part 3)

File: pulses_4000_to_5000.txt
Time (s)	WE(1).Potential (V)	WE(1).Current (A)
3016.76	-0.698669	-0.021283
3019.1	-0.000491333	0.00687164
3021.42	0.000289917	0.00475922
3023.76	-0.698914	-0.0178253
3026.1	0.000299072	0.00707642
3028.42	0.000488281	0.00482147
3030.76	-0.698578	-0.0177917
3033.1	-0.000506592	0.0071048
3035.42	0.000750732	0.00483551
3037.76	-0.697693	-0.0177917
3040.1	0.000204468	0.00710968
3042.42	0.000726318	0.00484375
3044.76	-0.698364	-0.0177856
3047.1	0.000466919	0.00711304
3049.42	0.00067749	0.00484955
3051.76	-0.697906	-0.0177765
3054.1	-0.000524902	0.00711884
3056.42	-0.000262451	0.00486267
3058.76	-0.698883	-0.0177673
3061.1	0.000643921	0.0071109
3063.42	0.000656128	0.00485687
3065.76	-0.697662	-0.0177673
3068.1	-0.000268555	0.00711487
3070.42	-3.05176e-05	0.00486725
3072.76	-0.697632	-0.0177612
3075.1	-0.000390625	0.007117
3077.42	0.000799561	0.00486298
3079.76	-0.697876	-0.0177521
3082.1	0.000210571	0.00710693
3084.42	-0.000344849	0.00487
3086.76	-0.698334	-0.0177582
3089.1	-0.000222778	0.00711334
3091.42	0.000726318	0.00486633
3093.76	-0.6987	-0.017746
3096.1	-0.000366211	0.00711121
3098.42	0.000213623	0.00486572
3100.76	-0.69809	-0.017749
3103.1	-0.000476074	0.00710632
3105.42	0.000701904	0.00486786
3107.76	-0.6987	-0.0177399
3110.1	0.000320435	0.0070993
3112.42	-0.000466919	0.00487183
3114.76	-0.69873	-0.017746
3117.1	-0.000570679	0.00710358
3119.42	0.000323486	0.00487335
3121.76	-0.698792	-0.0177399
3124.1	8.54492e-05	0.00709961
3126.42	-0.000442505	0.00486908
3128.76	-0.698456	-0.017746
3131.1	0.000448608	0.00705994
3133.42	-0.00039978	0.00485291
3135.76	-0.697693	-0.0177704
3138.1	-0.000439453	0.00708099
3140.42	-0.000305176	0.00486481
3142.76	-0.697784	-0.0177582
3145.1	-0.000463867	0.00708405
3147.42	0.000210571	0.00486237
3149.76	-0.698914	-0.017749
3152.1	-0.000482178	0.00708557
3154.42	-0.000436401	0.00487579
3156.76	-0.697723	-0.017749
3159.1	0.000286865	0.00708069
3161.42	-0.000387573	0.00487823
3163.76	-0.698486	-0.0177277
3166.1	-0.000457764	0.00708344
3168.42	0.000720215	0.00487335
3170.76	-0.698486	-0.0177399
3173.1	-0.000595093	0.0070816
3175.42	-0.00027771	0.00488312
3177.76	-0.698486	-0.0177307
3180.1	-0.000500488	0.00708221
3182.42	0.000634766	0.00487885
3184.76	-0.698578	-0.0177246
3187.1	0.000521851	0.00707306
3189.42	-0.000299072	0.00488617
3191.76	-0.697693	-0.0177185
3194.1	0.000683594	0.00707153
3196.42	-1.83105e-05	0.00488831
3198.76	-0.697754	-0.0177216
3201.1	-0.000170898	0.00707642
3203.42	-0.000491333	0.00489166
3205.76	-0.697754	-0.0177216
3208.1	0.000643921	0.00706818
3210.42	0.000717163	0.00486542
3212.76	-0.697937	-0.0176331
3215.1	0.000271606	0.00695831
3217.42	-1.52588e-05	0.00479156
3219.76	-0.698212	-0.0177307
3222.1	-0.000515747	0.00697113
3224.42	-0.000439453	0.00481171
3226.76	-0.697876	-0.0177185
3229.1	-0.000500488	0.00692627
3231.42	0.000119019	0.00477112
3233.76	-0.697937	-0.0177856
3236.1	0.000598145	0.00695435
3238.42	0.000509644	0.00480774
3240.76	-0.698883	-0.0177673
3243.1	0.000488281	0.00700531
3245.42	0.000186157	0.00482971
3247.76	-0.697754	-0.0178101
3250.1	-0.000436401	0.00701782
3252.42	0.000396729	0.00484924
3254.76	-0.698639	-0.0177795
3257.1	-0.000283813	0.00698242
3259.42	0.000674438	0.0048233
3261.76	-0.697662	-0.0177673
3264.1	0.000390625	0.00699066
3266.42	0.000540161	0.00483032
3268.76	-0.698792	-0.017804
3271.1	0.000680542	0.00700256
3273.42	-0.000186157	0.00485291
3275.76	-0.698914	-0.0177948
3278.1	0.000317383	0.00701111
3280.42	-4.88281e-05	0.00486298
3282.76	-0.69873	-0.0177856
3285.1	0.000195313	0.0070166
3287.42	0.000128174	0.00486847
3289.76	-0.698608	-0.0177734
3292.1	-0.000372314	0.0070282
3294.42	-0.000305176	0.0048819
3296.76	-0.697662	-0.0177734
3299.1	7.93457e-05	0.0070282
3301.42	3.05176e-05	0.00488403
3303.76	-0.698822	-0.0177673
3306.1	0.000656128	0.00702332
3308.42	7.93457e-05	0.00488586
3310.76	-0.698822	-0.0177612
3313.1	-0.000454712	0.00702881
3315.42	0.000619507	0.00488647
3317.76	-0.69809	-0.0177612
3320.1	-0.000506592	0.00702789
3322.42	-0.00012207	0.00489197
3324.76	-0.698029	-0.017749
3327.1	0.000619507	0.00702087
3329.42	0.00050354	0.00489563
3331.76	-0.697968	-0.017746
3334.1	0.000357056	0.00701782
3336.42	-0.000128174	0.00489563
3338.76	-0.698425	-0.0177399
3341.1	-0.000234985	0.00702148
3343.42	0.000753784	0.0048938
3345.76	-0.697754	-0.017749
3348.1	-0.000479126	0.00702301
3350.42	0.000671387	0.00489685
3352.76	-0.697784	-0.0177429
3355.1	-0.000149536	0.00701569
3357.42	-0.000320435	0.00490173
3359.76	-0.698212	-0.017746
3362.1	-0.000469971	0.00701904
3364.42	0.00062561	0.00490082
3366.76	-0.697632	-0.0177429
3369.1	0.000338745	0.00700653
3371.42	-0.000250244	0.00490295
3373.76	-0.698242	-0.0177368
3376.1	-0.000299072	0.00701416
3378.42	0.000524902	0.00489899
3380.76	-0.697601	-0.0177368
3383.1	-0.00045166	0.00700836
3385.42	0.000750732	0.00490173
3387.76	-0.697754	-0.0177338
3390.1	-0.00043335	0.00700989
3392.42	-0.00032959	0.00490723
3394.76	-0.69812	-0.0177277
3397.1	-1.83105e-05	0.00700623
3399.42	-5.49316e-05	0.00490631
3401.76	-0.697632	-0.0177307
3404.1	-0.000338745	0.00700592
3406.42	0.00071106	0.00490387
3408.76	-0.698761	-0.0177185
3411.1	0.000518799	0.00699738
3413.42	0.00085144	0.00490662
3415.76	-0.697815	-0.0177277
3418.1	-0.000488281	0.00700348
3420.42	0.000653076	0.00490875
3422.76	-0.697845	-0.0177246
3425.1	-0.000268555	0.00700104
3427.42	0.000738525	0.00490845
3429.76	-0.697693	-0.0177216
3432.1	0.000543213	0.00699188
3434.42	-0.000411987	0.00491791
3436.76	-0.698212	-0.0177216
3439.1	0.00039978	0.00698853
3441.42	-0.000231934	0.00491943
3443.76	-0.698883	-0.0177124
3446.1	-0.000363159	0.00699493
3448.42	0.000317383	0.00491241
3450.76	-0.697601	-0.0177155
3453.1	0.000442505	0.00698303
3455.42	0.000204468	0.00491913
3457.76	-0.697754	-0.0177155
3460.1	0.000646973	0.00698334
3462.42	3.96729e-05	0.00492096
3464.76	-0.69812	-0.0177094
3467.1	0.000656128	0.0069809
3469.42	-0.000134277	0.00491974
3471.76	-0.697784	-0.0177185
3474.1	0.000558472	0.00697723
3476.42	0.000164795	0.00491791
3478.76	-0.697754	-0.0177063
3481.1	0.000674438	0.0069754
3483.42	-0.000430298	0.00492554
3485.76	-0.698944	-0.0177063
3488.1	0.000689697	0.00697632
3490.42	-0.000448608	0.00492432
3492.76	-0.697784	-0.0177063
3495.1	0.000582886	0.00697235
3497.42	0.000598145	0.0049176
3499.76	-0.6987	-0.0176971
3502.1	-0.000469971	0.00697693
3504.42	-0.000436401	0.00492828
3506.76	-0.697693	-0.0176971
3509.1	0.000247192	0.00697205
3511.42	-0.000442505	0.00492889
3513.76	-0.698578	-0.0176849
3516.1	0.000167847	0.00696716
3518.42	0.000552368	0.00492065
3520.76	-0.697571	-0.0176941
3523.1	7.62939e-05	0.0069635
3525.42	-0.000424194	0.00493164
3527.76	-0.69812	-0.0177002
3530.1	-3.05176e-05	0.00696869
3532.42	0.000622559	0.00492462
3534.76	-0.698242	-0.017691
3537.1	-9.15527e-05	0.00696594
3539.42	-0.000418091	0.00493164
3541.76	-0.698914	-0.0176849
3544.1	0.000143433	0.0069577
3546.42	-0.00027771	0.00493561
3548.76	-0.698853	-0.0176788
3551.1	0.000543213	0.00695984
3553.42	0.000152588	0.00493164
3555.76	-0.69873	-0.0176819
3558.1	0.000463867	0.00695831
3560.42	-9.15527e-06	0.00493866
3562.76	-0.697876	-0.0176849
3565.1	0.000646973	0.00695251
3567.42	4.88281e-05	0.00493683
3569.76	-0.697754	-0.0176819
3572.1	0.000595093	0.00695099
3574.42	0.000442505	0.00493927
3576.76	-0.697662	-0.0176819
3579.1	0.000512695	0.00695282
3581.42	0.000692749	0.00493439
3583.76	-0.697754	-0.0176788
3586.1	-0.000494385	0.00695435
3588.42	0.00050354	0.00493469
3590.76	-0.698853	-0.0176727
3593.1	0.000143433	0.00695038
3595.42	0.000653076	0.00493774
3597.76	-0.698059	-0.0176758
3600.1	-4.88281e-05	0.0069458
3602.42	0.000518799	0.0049353
3604.76	-0.697815	-0.0176636
3607.1	0.0006073	0.00694153
3609.42	0.000698853	0.00493958
3611.76	-0.698853	-0.0176666
3614.1	-0.000415039	0.00694427
3616.42	0.000695801	0.00493835
3618.76	-0.698853	-0.0176575
3621.1	-0.00039978	0.00694458
3623.42	-3.05176e-05	0.00494171
3625.76	-0.698639	-0.0176514
3628.1	-0.000442505	0.00694183
3630.42	0.000784302	0.00493988
3632.76	-0.698944	-0.0176575
3635.1	-0.000241089	0.0069339
3637.42	-0.000411987	0.00494873
3639.76	-0.697723	-0.0176605
3642.1	-0.000143433	0.00693726
3644.42	-1.2207e-05	0.00494781
3646.76	-0.698883	-0.0176544
3649.1	0.000408936	0.00692749
3651.42	0.00055542	0.00494385
3653.76	-0.698883	-0.0176483
3656.1	0.000601196	0.00692566
3658.42	0.000717163	0.00494507
3660.76	-0.697693	-0.0176575
3663.1	-0.000305176	0.00692871
3665.42	-0.000442505	0.00494965
3667.76	-0.6987	-0.0176575
3670.1	-0.000448608	0.00693176
3672.42	-0.000408936	0.00495361
3674.76	-0.698669	-0.0176483
3677.1	0.00017395	0.00692261
3679.42	-0.00043335	0.00495453
3681.76	-0.697571	-0.0176483
3684.1	-0.000454712	0.006922
3686.42	-0.000366211	0.00495087
3688.76	-0.697937	-0.0176544
3691.1	-0.000366211	0.00691956
3693.42	-0.000421143	0.00495026
3695.76	-0.69809	-0.0176453
3698.1	0.000244141	0.00691162
3700.42	0.000213623	0.0049527
3702.76	-0.698181	-0.0176056
3705.1	-6.10352e-05	0.00683838
3707.42	0.000643921	0.00488434
3709.76	-0.697693	-0.0176392
3712.1	0.000476074	0.00683594
3714.42	-3.66211e-05	0.00489716
3716.72	-7.32422e-05	0.00368561

File: pulses_5000_to_6000.txt
Time (s)	WE(1).Potential (V)	WE(1).Current (A)
3725.53	-0.698212	-0.0214569
3727.87	7.62939e-05	0.00651581
3730.19	0.000463867	0.00482361
3732.53	-0.6987	-0.0177246
3734.87	-0.000424194	0.00682739
3737.19	-0.000387573	0.00490509
3739.53	-0.698486	-0.0176758
3741.87	0.000534058	0.00685547
3744.19	-0.000100708	0.00492493
3746.53	-0.697784	-0.0176636
3748.87	-0.000119019	0.00687317
3751.19	0.000708008	0.00493622
3753.53	-0.69873	-0.0176514
3755.87	0.0006073	0.00687622
3758.19	0.000640869	0.00494324
3760.53	-0.698944	-0.0176422
3762.87	0.000466919	0.00688141
3765.19	0.000582886	0.004953
3767.53	-0.698608	-0.01763
3769.87	0.000637817	0.00688049
3772.19	-0.00043335	0.00496033
3774.53	-0.698822	-0.0176239
3776.87	-0.00039978	0.00688843
3779.19	-0.000375366	0.00496429
3781.53	-0.697693	-0.01763
3783.87	0.000634766	0.00688416
3786.19	0.000567627	0.00496277
3788.53	-0.698853	-0.0176239
3790.87	-0.000473022	0.00689087
3793.19	0.000634766	0.00496185
3795.53	-0.697723	-0.0176178
3797.87	0.000115967	0.00688385
3800.19	0.000802612	0.00496429
3802.53	-0.698273	-0.0176086
3804.87	0.000506592	0.00687988
3807.19	-0.000262451	0.00497162
3809.53	-0.697723	-0.0176147
3811.87	3.66211e-05	0.00688324
3814.19	-0.000350952	0.00497131
3816.53	-0.698853	-0.0176056
3818.87	-0.000143433	0.00688202
3821.19	0.000167847	0.00496826
3823.53	-0.69809	-0.0176086
3825.87	-0.000421143	0.00688354
3828.19	0.000656128	0.00496826
3830.53	-0.698578	-0.0176025
3832.87	0.00050354	0.006875
3835.19	0.000640869	0.00496704
3837.53	-0.698853	-0.0176056
3839.87	0.000430298	0.00687836
3842.19	0.000735474	0.0049707
3844.53	-0.698456	-0.0176056
3846.87	-0.000384521	0.0068808
3849.19	-0.000234985	0.0049762
3851.53	-0.697723	-0.0176056
3853.87	-0.000299072	0.00687561
3856.19	-0.000256348	0.00497894
3858.53	-0.6987	-0.0176025
3860.87	0.000234985	0.00686951
3863.19	0.000219727	0.00497467
3865.53	-0.697968	-0.0176056
3867.87	0.000552368	0.00686737
3870.19	-0.000466919	0.00498047
3872.53	-0.698486	-0.0175903
3874.87	0.000732422	0.00686737
3877.19	2.13623e-05	0.00498138
3879.53	-0.698395	-0.0175995
3881.87	0.000372314	0.0068689
3884.19	2.13623e-05	0.00497925
3886.53	-0.698425	-0.0175964
3888.87	-0.000323486	0.00687134
3891.19	0.000714111	0.00497833
3893.53	-0.698395	-0.0175964
3895.87	0.0006073	0.00686188
3898.19	-0.00043335	0.00498596
3900.53	-0.697754	-0.0175934
3902.87	-0.000491333	0.00686676
3905.19	9.46045e-05	0.00498016
3907.53	-0.698914	-0.0175781
3909.87	0.000619507	0.00686188
3912.19	-0.000170898	0.00498535
3914.53	-0.697815	-0.0175842
3916.87	0.000592041	0.00685944
3919.19	0.000216675	0.0049826
3921.53	-0.698212	-0.0175934
3923.87	-0.000100708	0.0068573
3926.19	0.000247192	0.00498657
3928.53	-0.697968	-0.0175751
3930.87	0.000619507	0.00685455
3933.19	-0.000314331	0.00499146
3935.53	-0.697693	-0.0175812
3937.87	0.000234985	0.00685394
3940.19	0.00067749	0.00498688
3942.53	-0.697723	-0.0175781
3944.87	-0.000454712	0.00685913
3947.19	0.000384521	0.00499023
3949.53	-0.698608	-0.0175629
3951.87	-0.000375366	0.00685822
3954.19	0.00015564	0.00498749
3956.53	-0.698578	-0.0175598
3958.87	0.000238037	0.00685577
3961.19	0.000738525	0.00498932
3963.53	-0.697968	-0.017572
3965.87	-0.000131226	0.0068515
3968.19	0.00017395	0.00499603
3970.53	-0.698944	-0.017572
3972.87	0.000720215	0.0068457
3975.19	-0.000335693	0.00499908
3977.53	-0.698822	-0.0175598
3979.87	0.000357056	0.00684601
3982.19	-4.88281e-05	0.00499725
3984.53	-0.698029	-0.0175415
3986.87	0.000509644	0.00673676
3989.19	-0.000369263	0.00491455
3991.53	-0.698486	-0.0176727
3993.87	-0.000534058	0.00681915
3996.19	-9.76562e-05	0.00494141
3998.53	-0.698456	-0.0177002
4000.87	-0.000183105	0.00683136
4003.19	0.000524902	0.00495331
4005.53	-0.698761	-0.0176727
4007.87	0.000143433	0.00684204
4010.19	0.000735474	0.00496765
4012.53	-0.6987	-0.0176636
4014.87	-0.000177002	0.00684631
4017.19	-3.96729e-05	0.00498352
4019.53	-0.697845	-0.0176636
4021.87	0.000518799	0.00684937
4024.19	0.000704956	0.00498566
4026.53	-0.698669	-0.0176544
4028.87	0.000363159	0.0068512
4031.19	0.000192261	0.00499603
4033.53	-0.698792	-0.0176422
4035.87	0.000643921	0.00685455
4038.19	-7.62939e-05	0.00499725
4040.53	-0.697968	-0.0176483
4042.87	0.000631714	0.00685455
4045.19	0.000128174	0.00500214
4047.53	-0.698151	-0.0176361
4049.87	-0.000534058	0.00686249
4052.19	-0.000445557	0.00500916
4054.53	-0.697784	-0.0176422
4056.87	-0.000482178	0.0068631
4059.19	0.000811768	0.00500458
4061.53	-0.699005	-0.01763
4063.87	-0.000506592	0.00686188
4066.19	0.000115967	0.00501099
4068.53	-0.698669	-0.0176208
4070.87	0.000442505	0.00685455
4073.19	-0.000491333	0.00501343
4075.53	-0.698975	-0.017627
4077.87	0.000247192	0.00685028
4080.19	0.000637817	0.00500763
4082.53	-0.697815	-0.0176239
4084.87	0.000387573	0.00685242
4087.19	0.00072937	0.00500885
4089.53	-0.697876	-0.0176178
4091.87	6.10352e-06	0.00685577
4094.19	0.000134277	0.00501556
4096.53	-0.698639	-0.0176117
4098.87	0.00012207	0.00684814
4101.19	0.000469971	0.00501221
4103.53	-0.697784	-0.0176147
4105.87	-0.000527954	0.00685272
4108.19	0.000839233	0.00501251
4110.53	-0.697723	-0.0176147
4112.87	-7.62939e-05	0.00685211
4115.19	-0.000436401	0.00501923
4117.53	-0.697876	-0.0176178
4119.87	0.000613403	0.00684418
4122.19	-0.000411987	0.00502075
4124.53	-0.697815	-0.0176208
4126.87	0.000143433	0.0068454
4129.19	-0.000442505	0.00502136
4131.53	-0.697754	-0.0176208
4133.87	0.000350952	0.0068399
4136.19	0.000189209	0.00502014
4138.53	-0.697845	-0.0176117
4140.87	0.000643921	0.0068396
4143.19	-0.000378418	0.00502472
4145.53	-0.697723	-0.0176147
4147.87	0.000488281	0.00683533
4150.19	0.000610352	0.00501862
4152.53	-0.697876	-0.0176147
4154.87	-0.000152588	0.00683899
4157.19	0.000750732	0.00501862
4159.53	-0.698669	-0.0175995
4161.87	-0.000317383	0.00683899
4164.19	-0.000280762	0.00502686
4166.53	-0.697662	-0.0176056
4168.87	-0.000213623	0.00683777
4171.19	-4.88281e-05	0.00502838
4173.53	-0.697754	-0.0176086
4175.87	0.000668335	0.00683289
4178.19	-0.000418091	0.00503113
4180.53	-0.698578	-0.0176056
4182.87	0.000289917	0.00683716
4185.19	0.000588989	0.00502594
4187.53	-0.697723	-0.0176025
4189.87	0.00017395	0.00683533
4192.19	0.000595093	0.0050238
4194.53	-0.698425	-0.0175903
4196.87	-0.000161743	0.00683502
4199.19	0.00072937	0.00502533
4201.53	-0.698608	-0.0175842
4203.87	-0.000439453	0.00683258
4206.19	0.000494385	0.0050293
4208.53	-0.698029	-0.0175934
4210.87	0.00038147	0.00682953
4213.19	0.000567627	0.00503204
4215.53	-0.6987	-0.0175964
4217.87	0.00067749	0.00682678
4220.19	-0.000369263	0.0050354
4222.53	-0.698822	-0.0175812
4224.87	0.000509644	0.00682556
4227.19	-0.000442505	0.00503723
4229.53	-0.698822	-0.0175812
4231.87	0.000308228	0.00682465
4234.19	0.000747681	0.00503021
4236.53	-0.697723	-0.0175873
4238.87	-0.000469971	0.0068277
4241.19	-0.000109863	0.00503815
4243.53	-0.6987	-0.0175812
4245.87	0.000488281	0.00681763
4248.19	0.000686646	0.00503387
4250.53	-0.698517	-0.017572
4252.87	-6.71387e-05	0.00681549
4255.19	0.000714111	0.00503204
4257.53	-0.698578	-0.0175842
4259.87	-0.000262451	0.00681824
4262.19	-0.000216675	0.00503876
4264.53	-0.698059	-0.0174927
4266.87	0.000637817	0.00672424
4269.19	0.000704956	0.00498383
4271.53	-0.698456	-0.017514
4273.87	0.000393677	0.00672699
4276.19	0.000482178	0.00499176
4278.53	-0.69809	-0.0175262
4280.87	-0.000125122	0.00679352
4283.19	-0.000213623	0.00501526
4285.53	-0.697845	-0.017627
4287.87	-0.000570679	0.00679932
4290.19	0.000634766	0.00501556
4292.53	-0.697937	-0.017627
4294.87	0.000650024	0.00679749
4297.19	-0.000430298	0.00502991
4299.53	-0.698273	-0.0176208
4301.87	-0.000476074	0.00680786
4304.19	-0.000152588	0.00503387
4306.53	-0.698914	-0.0176086
4308.87	-0.000418091	0.00680695
4311.19	-0.000228882	0.00503021
4313.53	-0.698151	-0.0176208
4315.87	0.000631714	0.00679932
4318.19	-7.93457e-05	0.00503632
4320.53	-0.69873	-0.0176086
4322.87	0.000531006	0.00679657
4325.19	0.000524902	0.00502838
4327.53	-0.697784	-0.0176056
4329.87	-0.000326538	0.00680054
4332.19	-0.000259399	0.00503113
4334.53	-0.697876	-0.0176117
4336.87	-0.000592041	0.00679901
4339.19	-0.000299072	0.00503723
4341.53	-0.697906	-0.0175995
4343.87	-0.000289917	0.00679901
4346.19	-0.000411987	0.00503754
4348.53	-0.69873	-0.0175995
4350.87	-0.000415039	0.00679474
4353.19	0.000372314	0.00503357
4355.53	-0.6987	-0.0176025
4357.87	0.000393677	0.00678864
4360.19	0.000595093	0.00503235
4362.53	-0.697723	-0.0176086
4364.87	0.000158691	0.00679108
4367.19	-0.000344849	0.0050351
4369.53	-0.698608	-0.0175934
4371.87	0.000363159	0.00678375
4374.19	-0.00027771	0.00504181
4376.53	-0.697906	-0.0175903
4378.87	-0.000320435	0.00678772
4381.19	-0.000262451	0.00504272
4383.53	-0.698883	-0.0175842
4385.87	0.000442505	0.00678436
4388.19	0.000112915	0.00503784
4390.53	-0.697784	-0.0175934
4392.87	0.000561523	0.00678314
4395.19	-2.13623e-05	0.00504303
4397.53	-0.698364	-0.0175873
4399.87	-0.000494385	0.00678772
4402.19	-0.00022583	0.00504578
4404.53	-0.698883	-0.0175873
4406.87	0.000698853	0.00677704
4409.19	9.46045e-05	0.00503998
4411.53	-0.697845	-0.0175934
4413.87	-0.000280762	0.00678101
4416.19	-0.000430298	0.00504761
4418.53	-0.69873	-0.0175842
4420.87	-0.000509644	0.00678131
4423.19	-0.000418091	0.00504578
4425.49	0.000799561	0.00393585