Folder: electrochromicfilms/Edgar/20240607/20240607/electrodeposition_pulsed_potential_20240607_C

File: pulses_0_to_1000.txt
Time (s)	WE(1).Potential (V)	WE(1).Current (A)
181.686	-0.699738	-0.0029657
184.026	0.000799561	0.000128387
186.346	-0.000439453	3.45154e-05
188.686	-0.698364	-0.00438019
191.026	-0.000152588	0.0002677
193.346	6.71387e-05	4.82178e-05
195.686	-0.699371	-0.00642761
198.026	0.000604248	0.000473206
200.346	0.000640869	1.77307e-05
202.686	-0.699219	-0.00797119
205.026	0.000521851	0.000809021
207.346	0.000799561	-2.02637e-05
209.686	-0.698425	-0.00904236
212.026	-0.000125122	0.00140717
214.346	-0.000439453	-3.21045e-05
216.686	-0.698364	-0.00991516
219.026	0.000933838	0.00220123
221.346	0.000527954	-5.11169e-05
223.686	-0.699158	-0.0106567
226.026	-0.000238037	0.00309235
228.346	0.000549316	-6.03943e-05
230.686	-0.698395	-0.0113312
233.026	-0.000244141	0.00394806
235.346	-0.000421143	-5.91736e-05
237.686	-0.698273	-0.011911
240.026	0.000326538	0.00471405
242.346	-9.15527e-06	-6.28662e-05
244.686	-0.699402	-0.0124115
247.026	0.000518799	0.00538574
249.346	9.15527e-06	-6.66809e-05
251.686	-0.698029	-0.0128632
254.026	0.000320435	0.00596008
256.346	-0.000442505	-6.21033e-05
258.686	-0.699341	-0.013266
261.026	0.000787354	0.00645081
263.346	0.000848389	-6.66199e-05
265.686	-0.697906	-0.0136353
268.026	-0.000466919	0.00687134
270.346	0.000756836	-5.9021e-05
272.686	-0.6987	-0.0139679
275.026	-0.000488281	0.00722351
277.346	0.000231934	-4.17175e-05
279.686	-0.697998	-0.0142639
282.026	-0.000408936	0.00752258
284.346	0.000161743	-3.10669e-05
286.686	-0.697845	-0.0145264
289.026	-0.00012207	0.00777588
291.346	-0.000274658	-6.19507e-06
293.686	-0.698273	-0.0147736
296.026	-0.000637817	0.00798645
298.346	-0.000341797	1.9043e-05
300.686	-0.6987	-0.0150024
303.026	-0.000204468	0.00817261
305.346	0.000564575	3.96423e-05
307.686	-0.698425	-0.0152252
310.026	7.62939e-05	0.0083313
312.346	0.00088501	7.03125E-05
314.686	-0.699097	-0.0154083
317.026	-4.57764e-05	0.00847778
319.346	-0.000466919	0.000114502
321.686	-0.699219	-0.0155884
324.026	-0.000515747	0.00861206
326.346	-0.000439453	0.000151733
328.686	-0.698944	-0.0157501
331.026	0.000564575	0.00871887
333.346	0.000805664	0.000185364
335.686	-0.697845	-0.015918
338.026	0.00057373	0.00881348
340.346	0.00022583	0.000233826
342.686	-0.69873	-0.0160583
345.026	0.000286865	0.00889893
347.346	0.000817871	0.00027536
349.686	-0.699066	-0.0161896
352.026	-4.88281e-05	0.00896912
354.346	0.000534058	0.000328003
356.686	-0.699127	-0.0163147
359.026	0.000482178	0.00903625
361.346	0.000674438	0.000375092
363.686	-0.698792	-0.0164337
366.026	0.000509644	0.00910034
368.346	0.000674438	0.000427704
370.686	-0.698883	-0.0165436
373.026	-0.000320435	0.00916443
375.346	0.000469971	0.000481079
377.686	-0.698486	-0.0166656
380.026	-0.000692749	0.0092041
382.346	0.000897217	0.000536499
384.686	-0.697784	-0.0167694
387.026	-0.000662231	0.00924683
389.346	0.000146484	0.000591125
391.686	-0.699097	-0.0168579
394.026	-0.000323486	0.00926819
396.346	-0.000177002	0.000655518
398.686	-0.698944	-0.0169495
401.026	0.000402832	0.00931396
403.346	0.000717163	0.000703735
405.686	-0.697815	-0.0170441
408.026	-0.000540161	0.00934448
410.346	-0.000213623	0.000768738
412.686	-0.697998	-0.0171173
415.026	-3.05176e-06	0.00935669
417.346	-0.000372314	0.000827026
419.686	-0.697998	-0.0171997
422.026	-0.000726318	0.00938416
424.346	0	0.000877991
426.686	-0.697693	-0.0172729
429.026	0.000506592	0.00940247
431.346	-0.000357056	0.000940552
433.686	-0.698822	-0.0173401
436.026	-0.000564575	0.00940857
438.346	-0.000164795	0.000994568
440.686	-0.698273	-0.0174011
443.026	0.000531006	0.00942383
445.346	0.000146484	0.00104828
447.686	-0.698822	-0.0174744
450.026	0.000140381	0.00942688
452.346	0.00039978	0.00110687
454.686	-0.698212	-0.0175446
457.026	-0.000671387	0.00944519
459.346	-0.000204468	0.00116119
461.686	-0.697662	-0.0175964
464.026	-0.000643921	0.00943909
466.346	0.000183105	0.00121368
468.686	-0.698975	-0.0176453
471.026	0.000466919	0.00944214
473.346	0.000494385	0.00126587
475.686	-0.697754	-0.0177124
478.026	-0.000692749	0.00945129
480.346	0.000704956	0.00132172
482.686	-0.698944	-0.0177551
485.026	-0.000680542	0.00945129
487.346	0.000839233	0.00137604
489.686	-0.698975	-0.017804
492.026	-0.000601196	0.00945129
494.346	-0.000360107	0.0014328
496.686	-0.698639	-0.0178467
499.026	-3.66211e-05	0.00944214
501.346	0.00045166	0.00147919
503.686	-0.698395	-0.0178986
506.026	-0.000289917	0.00944214
508.346	-0.000308228	0.00153687
510.686	-0.698029	-0.0179291
513.026	-0.000567627	0.00944214
515.346	-0.000296021	0.00158722
517.686	-0.698975	-0.0179749
520.026	0.000134277	0.00942383
522.346	-0.00022583	0.00163849
524.686	-0.697784	-0.0180206
527.026	-2.13623e-05	0.00942383
529.346	0.000686646	0.00167511
531.686	-0.698792	-0.018045
534.026	0.000588989	0.00942078
536.346	0.000128174	0.00172607
538.686	-0.697998	-0.0180878
541.026	-0.000726318	0.00941467
543.346	0.000808716	0.00177063
545.686	-0.698181	-0.0181274
548.026	-0.000292969	0.00941162
550.346	0.000869751	0.0018158
552.686	-0.698914	-0.0181488
555.026	0.000299072	0.00939636
557.346	-0.000408936	0.0018692
559.686	-0.698792	-0.0181824
562.026	0.000241089	0.00939331
564.346	0.000756836	0.00190521
566.686	-0.698944	-0.0182068
569.026	0.000546265	0.00937805
571.346	-0.000192261	0.00195343
573.686	-0.698975	-0.0182312
576.026	0.000112915	0.00937805
578.346	-0.000219727	0.00199829
580.686	-0.698944	-0.0182556
583.026	-0.000506592	0.00935974
585.346	-0.000311279	0.00204163
587.686	-0.697662	-0.0182892
590.026	-0.000262451	0.00934753
592.346	0.000357056	0.00207794
594.686	-0.6987	-0.0183044
597.026	-0.000430298	0.00934753
599.346	-0.000259399	0.00212219
601.686	-0.69809	-0.0183319
604.026	4.88281e-05	0.00932312
606.346	7.32422e-05	0.00215759
608.686	-0.698364	-0.0183563
611.026	0.000515747	0.00932312
613.346	-0.000354004	0.0022052
615.686	-0.697876	-0.0183746
618.026	0.000466919	0.00931091
620.346	0.000302124	0.0022403
622.686	-0.697784	-0.018396
625.026	0.000473022	0.00929565
627.346	0.000143433	0.00227875
629.686	-0.698669	-0.0184052
632.026	0.000363159	0.0092865
634.346	0.000595093	0.00230835
636.686	-0.698517	-0.0184265
639.026	0.000463867	0.00927124
641.346	-7.01904e-05	0.00235291
643.686	-0.698669	-0.0184326
646.026	-0.000769043	0.00925903
648.346	-0.000106812	0.00238525
650.686	-0.697662	-0.0184509
653.026	-0.000561523	0.00925598
655.346	0.000845337	0.00241608
657.686	-0.698853	-0.0184631
660.027	-0.000140381	0.00924072
662.347	0.000735474	0.00245148
664.687	-0.698547	-0.0184814
667.027	-0.000366211	0.00923462
669.347	0.000186157	0.00249054
671.687	-0.698792	-0.0184906
674.027	0.000128174	0.0092041
676.347	0.000283813	0.0025174
678.687	-0.698792	-0.0184998
681.027	-0.000619507	0.00920105
683.347	-0.000134277	0.00255768
685.687	-0.698883	-0.0185181
688.027	0.000363159	0.00919189
690.347	0.000772095	0.00258209
692.687	-0.698792	-0.0185211
695.027	0.000479126	0.00917358
697.347	0.000714111	0.00261353
699.687	-0.69812	-0.0185394
702.027	0.000219727	0.00914917
704.347	0.000454712	0.00264709
706.687	-0.698181	-0.0185425
709.027	-0.000537109	0.00915527
711.347	-0.0003479	0.00267822
713.687	-0.698853	-0.0185516
716.027	-0.000631714	0.00914001
718.347	-7.62939e-05	0.00271118
720.687	-0.698761	-0.0185638
723.027	-0.000488281	0.00912781
725.347	-0.000363159	0.00273834
727.687	-0.698669	-0.0185669
730.027	1.2207e-05	0.00911865
732.347	0.000756836	0.00276031
734.687	-0.698883	-0.018576
737.027	-8.23975e-05	0.00908813
739.347	0.000744629	0.0027887
741.687	-0.697845	-0.0185944
744.027	0.000497437	0.00908203
746.347	-0.00039978	0.00281799
748.687	-0.697906	-0.0185974
751.027	0.000363159	0.00906677
753.347	0.000595093	0.00283997
755.687	-0.698486	-0.0185974
758.027	-0.000585937	0.00905762
760.347	-0.000189209	0.0028714
762.687	-0.698883	-0.0185974
765.027	0.000354004	0.00903931
767.347	0.000112915	0.00289825
769.687	-0.698792	-0.0186005
772.027	-0.000476074	0.00902405
774.347	-4.57764e-05	0.0029187
776.687	-0.698669	-0.0186157
779.027	0.000463867	0.00901489
781.347	9.46045e-05	0.00294373
783.687	-0.698029	-0.0186127
786.027	-0.000634766	0.00900269
788.347	0.000823975	0.00296661
790.687	-0.697784	-0.0186279
793.027	-0.000250244	0.00899353
795.347	0.000564575	0.00299133
797.687	-0.698792	-0.0186218
800.027	-0.000720215	0.00898132
802.347	0.000369263	0.00301788
804.687	-0.697632	-0.0186371
807.027	0.000491333	0.00896606
809.347	-0.000140381	0.00304321
811.687	-0.698029	-0.0186249
814.027	-0.000820923	0.00895386
816.347	1.2207e-05	0.00306396
818.687	-0.698303	-0.0186401
821.027	-0.000189209	0.0089447
823.347	0.000262451	0.00308075
825.687	-0.698029	-0.018631
828.027	-0.000357056	0.00893555
830.347	-0.000448608	0.00310852
832.687	-0.697876	-0.0186401
835.027	-0.000701904	0.00891418
837.347	0.000921631	0.00312317
839.687	-0.698914	-0.0186432
842.027	-0.000289917	0.00889893
844.347	-0.000421143	0.00315094
846.687	-0.697906	-0.0186493
849.027	-0.000704956	0.00889282
851.347	-0.000289917	0.00317078
853.687	-0.697754	-0.0186493
856.027	-0.000537109	0.00887451
858.347	0.000817871	0.0031842
860.687	-0.697723	-0.0186432
863.027	-0.000643921	0.00887146
865.347	0.000576782	0.00320435
867.687	-0.697693	-0.0186493
870.027	0.000479126	0.0088562
872.347	0.000863647	0.00322601
874.687	-0.697723	-0.0186432
877.027	-0.000747681	0.00884399
879.347	0.000799561	0.00324524
881.647	0.000869751	0.00105499

File: pulses_1000_to_2000.txt
Time (s)	WE(1).Potential (V)	WE(1).Current (A)
890.203	-0.697998	-0.0197296
892.543	0.000280762	0.00866699
894.863	1.52588e-05	0.0031781
897.203	-0.698486	-0.0186768
899.543	-0.000128174	0.0087738
901.863	0.000592041	0.00325226
904.203	-0.698761	-0.0186615
906.543	-0.000402832	0.0087738
908.863	-0.000323486	0.00329346
911.203	-0.697968	-0.0186584
913.543	0.000445557	0.0087738
915.863	0.000765991	0.00331329
918.203	-0.697693	-0.0186493
920.543	0.000201416	0.00877686
922.863	0.000872803	0.00333832
925.203	-0.697632	-0.0186401
927.543	0.000241089	0.00875854
929.863	-0.000393677	0.0033667
932.203	-0.698334	-0.018634
934.543	0.00017395	0.00875549
936.863	0.000588989	0.00338348
939.203	-0.697784	-0.0186432
941.543	-0.000637817	0.00875854
943.863	1.52588e-05	0.00340546
946.203	-0.697998	-0.018634
948.543	9.15527e-06	0.00874634
950.863	0.000390625	0.00341797
953.203	-0.69873	-0.018634
955.543	-0.000637817	0.00873718
957.863	0.000119019	0.00344421
960.203	-0.699036	-0.0186218
962.543	0.000204468	0.00872803
964.863	0.000430298	0.00345245
967.203	-0.698334	-0.0186279
969.543	-0.000393677	0.00871582
971.863	0.000802612	0.00346832
974.203	-0.697784	-0.0186279
976.543	0.000408936	0.00869446
978.863	0.000747681	0.00348541
981.203	-0.698212	-0.0186157
983.543	0.000402832	0.00868835
985.863	-0.000473022	0.00350769
988.203	-0.698608	-0.0186279
990.543	0.000186157	0.0086792
992.863	-0.000344849	0.00352142
995.203	-0.697784	-0.0186188
997.543	0.000137329	0.00865784
999.863	-0.000402832	0.00353729
1002.2	-0.697815	-0.0186218
1004.54	8.54492e-05	0.00865479
1006.86	-0.000311279	0.0035495
1009.2	-0.69809	-0.0186188
1011.54	-0.000479126	0.00865784
1013.86	-0.000372314	0.00356598
1016.2	-0.697662	-0.0186188
1018.54	0.000491333	0.00863342
1020.86	0.000405884	0.00357941
1023.2	-0.6987	-0.0186035
1025.54	-0.000808716	0.00863037
1027.86	0.000518799	0.00358978
1030.2	-0.697693	-0.0186066
1032.54	7.62939e-05	0.00860291
1034.86	9.76562e-05	0.00360229
1037.2	-0.698914	-0.0186005
1039.54	-0.000732422	0.00860901
1041.86	-0.000292969	0.00361847
1044.2	-0.69873	-0.0186066
1046.54	0.000488281	0.0085907
1048.86	0.000604248	0.0036264
1051.2	-0.698883	-0.0186005
1053.54	0.000521851	0.00857849
1055.86	-0.000469971	0.00364807
1058.2	-0.698059	-0.0185944
1060.54	-0.000314331	0.00857849
1062.86	0.00055542	0.00365417
1065.2	-0.697632	-0.0185944
1067.54	6.40869e-05	0.00855103
1069.86	-0.000442505	0.0036731
1072.2	-0.697723	-0.0185944
1074.54	0.000469971	0.00854492
1076.86	0.000775146	0.00367767
1079.2	-0.698792	-0.0185883
1081.54	6.40869e-05	0.00854187
1083.86	4.27246e-05	0.00369843
1086.2	-0.698944	-0.0185791
1088.54	-0.000549316	0.00852356
1090.86	0.000604248	0.00369995
1093.2	-0.698395	-0.018573
1095.54	0.000296021	0.00852661
1097.86	0.000115967	0.00371643
1100.2	-0.697693	-0.0185822
1102.54	0.000537109	0.0085083
1104.86	-0.000360107	0.00373413
1107.2	-0.698059	-0.018576
1109.54	-0.000216675	0.0085083
1111.86	-0.000372314	0.00374573
1114.2	-0.697632	-0.018573
1116.54	0.000418091	0.00848389
1118.86	-0.000509644	0.00375641
1121.2	-0.698853	-0.0185608
1123.54	0.000323486	0.00847778
1125.86	-0.000320435	0.00376709
1128.2	-0.698181	-0.018573
1130.54	-0.000692749	0.00846558
1132.86	0.00067749	0.00377228
1135.2	-0.69809	-0.0185547
1137.54	0.000518799	0.00845947
1139.86	0.000701904	0.0037854
1142.2	-0.697632	-0.0185638
1144.54	-0.000726318	0.00845032
1146.86	0.000524902	0.00379272
1149.2	-0.697998	-0.0185638
1151.54	-1.83105e-05	0.00844727
1153.86	5.49316e-05	0.0038089
1156.2	-0.698059	-0.0185425
1158.54	0.000640869	0.00843811
1160.86	-0.000247192	0.00382141
1163.2	-0.6987	-0.0185516
1165.54	-0.00065918	0.0084259
1167.86	3.96729e-05	0.00383301
1170.2	-0.698425	-0.0185425
1172.54	0.000241089	0.00840454
1174.86	0.000723267	0.00383881
1177.2	-0.698883	-0.0185394
1179.54	-0.000549316	0.00840149
1181.86	0.000546265	0.00384674
1184.2	-0.697968	-0.0185303
1186.54	-0.000265503	0.00838928
1188.86	-0.000201416	0.00386597
1191.2	-0.697632	-0.0185394
1193.54	0.000457764	0.00838318
1195.86	0.000750732	0.00386871
1198.2	-0.698303	-0.0185394
1200.54	-0.000393677	0.00837402
1202.86	0.000283813	0.00387939
1205.2	-0.698669	-0.0185181
1207.54	0.000131226	0.00837097
1209.86	0.000234985	0.00389526
1212.2	-0.698914	-0.0185181
1214.54	0.000115967	0.00835266
1216.86	0.000537109	0.00389832
1219.2	-0.698547	-0.018515
1221.54	0.000283813	0.00834656
1223.86	-0.000393677	0.00391357
1226.2	-0.698181	-0.0185181
1228.54	0.00039978	0.00834351
1230.86	-0.000332642	0.00392303
1233.2	-0.698914	-0.0185059
1235.54	0.000497437	0.0083252
1237.86	5.49316e-05	0.00393127
1240.2	-0.698364	-0.0185089
1242.54	0.000497437	0.00831909
1244.86	0.000778198	0.0039325
1247.2	-0.698608	-0.0184967
1249.54	0.0003479	0.00831909
1251.86	0.000787354	0.00394226
1254.2	-0.698914	-0.0185028
1256.54	0.000317383	0.00830078
1258.86	-0.000415039	0.00395874
1261.2	-0.697815	-0.0184998
1263.54	-4.27246e-05	0.00829468
1265.86	-0.000408936	0.0039682
1268.2	-0.697662	-0.0185028
1270.54	0.000424194	0.00828552
1272.86	0.00072937	0.00396759
1275.2	-0.697784	-0.0184967
1277.54	0.000125122	0.00827026
1279.86	-9.15527e-06	0.00397827
1282.2	-0.697571	-0.0184875
1284.54	-0.00062561	0.00826111
1286.86	0.00027771	0.0039859
1289.2	-0.697845	-0.0184784
1291.54	-0.000747681	0.00826111
1293.86	-0.000408936	0.00400177
1296.2	-0.697632	-0.0184875
1298.54	-0.000643921	0.00824585
1300.86	0.000674438	0.00400452
1303.2	-0.697937	-0.0184753
1305.54	0.000439453	0.00823975
1307.86	0.000567627	0.00401123
1310.2	-0.697662	-0.0184723
1312.54	0.000457764	0.00823364
1314.86	-0.000421143	0.00402832
1317.2	-0.697693	-0.0184692
1319.54	0.00022583	0.00823059
1321.86	-0.000384521	0.00403595
1324.2	-0.697601	-0.0184662
1326.54	-0.000753784	0.00821838
1328.86	-0.000408936	0.00404419
1331.2	-0.6987	-0.018457
1333.54	0.000241089	0.00820007
1335.86	0.000744629	0.00404388
1338.2	-0.698578	-0.0184326
1340.54	0.000375366	0.00819092
1342.86	0.000167847	0.0040509
1345.2	-0.697632	-0.0184448
1347.54	0.000213623	0.00818481
1349.86	0.000662231	0.00405731
1352.2	-0.697723	-0.0184692
1354.54	-0.000543213	0.00818481
1356.86	-0.000421143	0.00407013
1359.2	-0.69754	-0.0184631
1361.54	0.000268555	0.00819092
1363.86	-0.000314331	0.00407654
1366.2	-0.6987	-0.0184509
1368.54	-0.000186157	0.00817871
1370.86	-0.000445557	0.00408722
1373.2	-0.698364	-0.018457
1375.54	-9.46045e-05	0.00817261
1377.86	-2.44141e-05	0.00409088
1380.2	-0.698914	-0.0184357
1382.54	0.000332642	0.0081604
1384.86	0.000311279	0.00410065
1387.2	-0.698181	-0.0184387
1389.54	-0.000656128	0.00815735
1391.86	0.000268555	0.00410919
1394.2	-0.697693	-0.0184326
1396.54	0.000616455	0.00814514
1398.86	-0.000289917	0.00411804
1401.2	-0.697754	-0.0184357
1403.54	-0.000360107	0.00813293
1405.86	-0.000439453	0.00412445
1408.2	-0.697662	-0.0184296
1410.54	-0.000427246	0.00813599
1412.86	-0.000219727	0.00412933
1415.2	-0.698395	-0.0184265
1417.54	-0.000735474	0.00812378
1419.86	0.000210571	0.00413971
1422.2	-0.698059	-0.0184235
1424.54	-0.000115967	0.00812378
1426.86	-0.000134277	0.00414276
1429.2	-0.698242	-0.0184174
1431.54	-0.000695801	0.00811157
1433.86	-0.000439453	0.00415344
1436.2	-0.697815	-0.0184113
1438.54	0.000506592	0.00810242
1440.86	0.000784302	0.00415375
1443.2	-0.698364	-0.018396
1445.54	0.000320435	0.00809021
1447.86	0.000424194	0.00415863
1450.2	-0.697662	-0.0184052
1452.54	0.00050354	0.00808411
1454.86	0.000814819	0.00416931
1457.2	-0.698883	-0.018396
1459.54	-0.000460815	0.00807495
1461.86	0.000772095	0.0041745
1464.2	-0.698883	-0.0183838
1466.54	0.000335693	0.00808411
1468.86	-0.00027771	0.00418945
1471.2	-0.697693	-0.0183929
1473.54	-0.000442505	0.008078
1475.86	-0.000427246	0.00419525
1478.2	-0.697968	-0.0183807
1480.54	-0.000698853	0.0080658
1482.86	-7.32422e-05	0.00420288
1485.2	-0.698273	-0.0183838
1487.54	-0.000708008	0.00805664
1489.86	0.000805664	0.00420319
1492.2	-0.698578	-0.0183624
1494.54	-0.000509644	0.00804138
1496.86	0.000799561	0.00420837
1499.2	-0.698517	-0.0183594
1501.54	-0.000143433	0.00803528
1503.86	-0.000427246	0.00422272
1506.2	-0.698883	-0.0183533
1508.54	9.76562e-05	0.00802612
1510.86	0.000564575	0.00422028
1513.2	-0.69809	-0.0183533
1515.54	0.000466919	0.00802307
1517.86	-0.00045166	0.0042334
1520.2	-0.698029	-0.0183502
1522.54	-0.000735474	0.00802002
1524.86	0.000650024	0.00423523
1527.2	-0.698608	-0.0183411
1529.54	-0.00071106	0.00801697
1531.86	-4.27246e-05	0.00424469
1534.2	-0.698059	-0.018338
1536.54	0.000170898	0.00800171
1538.86	-0.00039978	0.00425079
1541.2	-0.69873	-0.018335
1543.54	-0.000299072	0.00800781
1545.86	0.000289917	0.00425171
1548.2	-0.697906	-0.0183472
1550.54	0.000613403	0.00799561
1552.86	-0.000485229	0.00426422
1555.2	-0.69809	-0.0183258
1557.54	0.000527954	0.00798645
1559.86	-0.000189209	0.0042691
1562.2	-0.697906	-0.018335
1564.54	0.000463867	0.00797729
1566.86	0.000238037	0.00427063
1569.2	-0.698212	-0.0183228
1571.54	0.00017395	0.00796509
1573.86	0.000387573	0.00427368
1576.2	-0.698914	-0.0183167
1578.54	0.000427246	0.00797424
1580.86	0.000131226	0.00428497
1583.2	-0.698822	-0.0183105
1585.54	0.000366211	0.00795593
1587.86	0.00015564	0.00428772
1590.16	-0.000405884	0.00234344