Folder: electrochromicfilms/Edgar/20240607/20240607/electrodeposition_pulsed_potential_20240607_E (part 3)

File: pulses_4000_to_5000.txt
Time (s)	WE(1).Potential (V)	WE(1).Current (A)
3016.74	-0.699188	-0.0195221
3019.08	-0.000872803	0.00570435
3021.4	0.000888062	0.00387573
3023.74	-0.698456	-0.0165283
3026.08	0.000805664	0.00590881
3028.4	0.00071106	0.00395294
3030.74	-0.697449	-0.01651
3033.08	-0.000643921	0.00593994
3035.4	0.0009765625	0.00396301
3037.74	-0.699371	-0.0164825
3040.08	0.000805664	0.0059491
3042.4	-0.000390625	0.00398743
3044.74	-0.697723	-0.0164886
3047.08	-0.000161743	0.00596252
3049.4	-0.000762939	0.00399475
3051.74	-0.699127	-0.0164642
3054.08	0.000488281	0.00595825
3056.4	0.000875854	0.00399078
3058.74	-0.69754	-0.0164764
3061.08	-0.000750732	0.00597137
3063.4	0.000854492	0.00400238
3065.74	-0.699493	-0.0164673
3068.08	-9.15527e-05	0.00595978
3070.4	0.000704956	0.00399933
3072.74	-0.697662	-0.0164734
3075.08	-0.000296021	0.00596741
3077.4	-0.000344849	0.00400574
3079.74	-0.698822	-0.0164551
3082.08	-0.00015564	0.00597443
3084.4	0.00104675	0.00400726
3086.74	-0.698578	-0.0164703
3089.08	0.000527954	0.00596619
3091.4	-0.000543213	0.00401947
3093.74	-0.69754	-0.0164673
3096.08	0.000405884	0.00596283
3098.4	0.000671387	0.00401337
3100.74	-0.697845	-0.0164612
3103.08	-0.000204468	0.00596924
3105.4	0.000924683	0.00401184
3107.74	-0.697632	-0.0164581
3110.08	0.000949097	0.00595825
3112.4	0.000460815	0.00402222
3114.74	-0.697998	-0.0164398
3117.08	0.000521851	0.00595551
3119.4	0.000894165	0.00401123
3121.74	-0.698914	-0.0164551
3124.08	0.000259399	0.00595398
3126.4	0.00110779	0.00401367
3128.74	-0.697876	-0.0164459
3131.08	0.000415039	0.00595856
3133.4	0.000537109	0.00401825
3135.74	-0.697632	-0.0164551
3138.08	-0.000396729	0.00596283
3140.4	0.000708008	0.00401886
3142.74	-0.697601	-0.016452
3145.08	0.000985718	0.00595032
3147.4	-0.000100708	0.00402344
3149.74	-0.699371	-0.0164337
3152.08	-0.000778198	0.00595673
3154.4	-0.000280762	0.00402405
3156.74	-0.699371	-0.0164307
3159.08	-0.000820923	0.00595612
3161.4	-0.000640869	0.00403168
3163.74	-0.699463	-0.0164276
3166.08	-0.000317383	0.00594727
3168.4	0.0009765625	0.00401917
3170.74	-0.69754	-0.0164429
3173.08	-0.000708008	0.00595032
3175.4	-0.00071106	0.00403381
3177.74	-0.697418	-0.0164337
3180.08	-0.000622559	0.0059436
3182.4	0.00114441	0.00402222
3184.74	-0.697998	-0.0164307
3187.08	0.000100708	0.00594055
3189.4	-0.000338745	0.00403076
3191.74	-0.697571	-0.0164398
3194.08	-0.000283813	0.00593994
3196.4	-1.2207e-05	0.00403137
3198.74	-0.698761	-0.0164337
3201.08	0.000994873	0.0059317
3203.4	0.0011261	0.00402435
3205.74	-0.697571	-0.0164307
3208.08	0.000338745	0.00593719
3210.4	-0.000817871	0.00403778
3212.74	-0.699036	-0.0164368
3215.08	0.000274658	0.00592987
3217.4	-0.000131226	0.00403107
3219.74	-0.6987	-0.0164337
3222.08	-9.46045e-05	0.00593231
3224.4	0.000537109	0.00403412
3226.74	-0.697876	-0.0164215
3229.08	0.000244141	0.00592438
3231.4	0.000680542	0.00403046
3233.74	-0.69754	-0.0164368
3236.08	0.00103455	0.00592224
3238.4	0.00065918	0.00403259
3240.74	-0.699219	-0.0164185
3243.08	-0.000186157	0.00592865
3245.4	-0.000720215	0.00404053
3247.74	-0.699371	-0.01640625
3250.08	-0.000897217	0.00592834
3252.4	0.0010376	0.00403046
3254.74	-0.699188	-0.0164154
3257.08	-4.88281e-05	0.00592072
3259.4	0.00118408	0.00403351
3261.74	-0.697662	-0.0164215
3264.08	-0.000616455	0.0059259
3266.4	0.000180054	0.00403564
3268.74	-0.699005	-0.0164032
3271.08	0.000942993	0.00591248
3273.4	0.00105286	0.00403412
3275.74	-0.699432	-0.0164032
3278.08	-0.000378418	0.00591766
3280.4	0.000964355	0.00403656
3282.74	-0.699158	-0.0164032
3285.08	0.000912476	0.0059079
3287.4	-0.0006073	0.00404877
3289.74	-0.698853	-0.0164032
3292.08	0.000460815	0.00591156
3294.4	-0.000653076	0.0040451
3296.74	-0.69754	-0.0164032
3299.08	0.000167847	0.00591644
3301.4	0.000109863	0.00404236
3303.74	-0.698761	-0.0163971
3306.08	0.000241089	0.00590729
3308.4	-0.000823975	0.00405243
3310.74	-0.697693	-0.0164093
3313.08	0.00101929	0.00590332
3315.4	0.00112305	0.00404297
3317.74	-0.697784	-0.0164032
3320.08	-0.000802612	0.00591187
3322.4	-0.000366211	0.00404755
3324.74	-0.699371	-0.016391
3327.08	1.83105e-05	0.00590424
3329.4	-0.000320435	0.00405487
3331.74	-0.697601	-0.01640625
3334.08	-0.000213623	0.00590027
3336.4	0.000341797	0.00405151
3338.74	-0.698639	-0.0163971
3341.08	0.0009765625	0.00589539
3343.4	0.00112	0.00404327
3345.74	-0.698029	-0.016394
3348.08	-0.000820923	0.00590546
3350.4	0.000814819	0.0040448
3352.74	-0.698456	-0.0163788
3355.08	-0.000582886	0.00590088
3357.4	0.00078125	0.00405121
3359.74	-0.697968	-0.0164032
3362.08	0.000994873	0.00589478
3364.4	0.000234985	0.00405151
3366.74	-0.698242	-0.0164001
3369.08	-0.000561523	0.00589752
3371.4	0.000231934	0.00405243
3373.74	-0.697876	-0.01640625
3376.08	0.000317383	0.00589691
3378.4	0.00110779	0.00405518
3380.74	-0.698914	-0.0163879
3383.08	0.000634766	0.00588806
3385.4	-0.000204468	0.00406006
3387.74	-0.697845	-0.016394
3390.08	-0.000762939	0.00589935
3392.4	0.000411987	0.00405426
3394.74	-0.69928	-0.0163849
3397.08	-0.000680542	0.00589996
3399.4	-0.000909424	0.00406342
3401.74	-0.698578	-0.0163971
3404.08	0.000692749	0.00589233
3406.4	0.000430298	0.00405426
3408.74	-0.698273	-0.0163818
3411.08	0.00101624	0.00588409
3413.4	0.00108032	0.00405731
3415.74	-0.698669	-0.0163818
3418.08	-0.00078125	0.00589355
3420.4	0.000119019	0.00406158
3422.74	-0.698029	-0.0163971
3425.08	0.000991821	0.00586639
3427.4	-0.000576782	0.00405365
3429.74	-0.699005	-0.0164154
3432.08	0.00103455	0.00586792
3434.4	0.000637817	0.00404083
3436.74	-0.699127	-0.0164124
3439.08	-0.000668335	0.00587372
3441.4	0.000454712	0.00405029
3443.74	-0.698151	-0.0164154
3446.08	0.00020752	0.00586884
3448.4	-0.00010376	0.00405579
3450.74	-0.699249	-0.0164032
3453.08	-0.000683594	0.00587219
3455.4	-0.000479126	0.00406067
3457.74	-0.699097	-0.0163971
3460.08	0.00116272	0.005867
3462.4	0.000982666	0.00405029
3464.74	-0.698578	-0.0164001
3467.08	0.000311279	0.00586578
3469.4	-0.000878906	0.00406311
3471.74	-0.699005	-0.016394
3474.08	0.000650024	0.00586182
3476.4	0.000762939	0.00406006
3478.74	-0.69754	-0.0164124
3481.08	0.00102539	0.00586365
3483.4	-0.000796509	0.00406586
3485.74	-0.699188	-0.0164001
3488.08	0.000991821	0.00586121
3490.4	0.000219727	0.00406036
3492.74	-0.699585	-0.0163879
3495.08	0.00106506	0.00586243
3497.4	-0.000454712	0.00407074
3499.74	-0.69809	-0.0163879
3502.08	-2.44141e-05	0.00586426
3504.4	-0.000408936	0.00407532
3506.74	-0.697571	-0.0163971
3509.08	0.000930786	0.00585724
3511.4	0.00101318	0.0040625
3513.74	-0.698639	-0.0163849
3516.08	0.000430298	0.005859375
3518.4	-0.000424194	0.00407104
3520.74	-0.697723	-0.0163849
3523.08	-0.000158691	0.00585815
3525.4	-0.00067749	0.00407196
3527.74	-0.697479	-0.0163818
3530.08	-0.00032959	0.00586548
3532.4	0.000274658	0.00406921
3534.74	-0.699188	-0.0163727
3537.08	0.000970459	0.00585205
3539.4	0.000961304	0.00406677
3541.74	-0.697784	-0.0163818
3544.08	-0.000308228	0.00586243
3546.4	-0.000247192	0.00408142
3548.74	-0.697876	-0.0163788
3551.08	-0.000595093	0.00586029
3553.4	-0.000695801	0.00408051
3555.74	-0.69754	-0.0163757
3558.08	-0.00045166	0.00585785
3560.4	0.000924683	0.00407196
3562.74	-0.697754	-0.0163574
3565.08	-0.000405884	0.00584625
3567.4	0.00100098	0.00407318
3569.74	-0.698273	-0.0163574
3572.08	-0.000393677	0.00585266
3574.4	-0.000540161	0.00407684
3576.74	-0.699219	-0.0163452
3579.08	0.0009765625	0.00584381
3581.4	0.00101929	0.00407471
3583.74	-0.699432	-0.0163574
3586.08	-5.79834e-05	0.0058493
3588.4	0.0009765625	0.00407684
3590.74	-0.698944	-0.0163605
3593.08	0.000863647	0.00583649
3595.4	-0.00043335	0.00408813
3597.74	-0.6987	-0.0163574
3600.08	0.000973511	0.00583771
3602.4	0.000897217	0.00407715
3604.74	-0.697968	-0.0163544
3607.08	0.000827026	0.00583649
3609.4	-0.000418091	0.00408417
3611.74	-0.699066	-0.0163452
3614.08	-0.000479126	0.00584686
3616.4	-0.000338745	0.00408936
3618.74	-0.697968	-0.0163544
3621.08	-0.000448608	0.00584167
3623.4	-0.000854492	0.00409027
3625.74	-0.698914	-0.0163513
3628.08	0.000997925	0.00583191
3630.4	0.000817871	0.00408112
3632.74	-0.699432	-0.0163391
3635.08	0.000668335	0.00583252
3637.4	0.00057373	0.00408295
3639.74	-0.699371	-0.0163391
3642.08	-0.00062561	0.00584015
3644.4	0.00107117	0.00408295
3646.74	-0.699402	-0.0163361
3649.08	-0.000805664	0.00583832
3651.4	0.000848389	0.00408386
3653.74	-0.699127	-0.0163391
3656.08	-0.000842285	0.00583405
3658.4	-0.000119019	0.00409851
3660.74	-0.699127	-0.0163269
3663.08	0.000982666	0.00582672
3665.4	-0.000497437	0.00409576
3667.74	-0.698853	-0.016333
3670.08	0.00100708	0.0058252
3672.4	0.00098877	0.00408691
3674.74	-0.698761	-0.0163239
3677.08	0.000921631	0.00582062
3679.4	-0.000592041	0.00409607
3681.74	-0.699097	-0.0163208
3684.08	0.000338745	0.00581818
3686.4	-0.000323486	0.00409424
3688.74	-0.697723	-0.01633
3691.08	1.2207e-05	0.00582642
3693.4	0.000894165	0.00408722
3695.74	-0.698547	-0.0163208
3698.08	0.000897217	0.00581635
3700.4	-0.00027771	0.00410004
3702.74	-0.699402	-0.0163147
3705.08	0.00083313	0.00581757
3707.4	0.00090332	0.00409119
3709.74	-0.6987	-0.01633
3712.08	-0.000320435	0.00582581
3714.4	-0.000247192	0.00409698
3716.7	0.000610352	0.00303162