Folder: electrochromicfilms/Edgar/20240607/20240607/electrodeposition_pulsed_potential_20240607_D (part 3)

File: pulses_4000_to_5000.txt
Time (s)	WE(1).Potential (V)	WE(1).Current (A)
3016.65	-0.698822	-0.0213654
3018.99	0.000344849	0.00701111
3021.31	0.000692749	0.00483734
3023.65	-0.697876	-0.0178986
3025.99	0.000750732	0.00721069
3028.31	0.000622559	0.00489624
3030.65	-0.698944	-0.0178497
3032.99	-0.000695801	0.00723816
3035.31	-0.000662231	0.0049176
3037.65	-0.698578	-0.0178406
3039.99	0.000738525	0.00723755
3042.31	0.000701904	0.00491852
3044.65	-0.699066	-0.0178345
3046.99	-0.000601196	0.00725037
3049.31	-0.000396729	0.00493134
3051.65	-0.698608	-0.0178345
3053.99	0.000335693	0.0072464
3056.31	0.000738525	0.00493103
3058.65	-0.697754	-0.0178253
3060.99	0.000311279	0.00723969
3063.31	0.000149536	0.00493256
3065.65	-0.69873	-0.0178253
3067.99	0.000289917	0.00723877
3070.31	-0.000427246	0.00494049
3072.65	-0.698059	-0.0178253
3074.99	-0.0006073	0.00724487
3077.31	-0.000567627	0.00494171
3079.65	-0.698975	-0.0178009
3081.99	0.000750732	0.00723083
3084.31	0.000360107	0.00493744
3086.65	-0.697693	-0.0178101
3088.99	0.000518799	0.00723022
3091.31	0.000588989	0.00493347
3093.65	-0.697632	-0.017807
3095.99	-0.000292969	0.00723419
3098.31	0.000280762	0.00493591
3100.65	-0.698364	-0.0177917
3102.99	0.000238037	0.00722473
3105.31	6.10352e-06	0.00494263
3107.65	-0.697784	-0.0178009
3109.99	-6.71387e-05	0.0072287
3112.31	-0.000628662	0.00494659
3114.65	-0.698059	-0.017804
3116.99	-0.000430298	0.00722687
3119.31	-0.000158691	0.00494934
3121.65	-0.698425	-0.0178284
3123.99	-0.000531006	0.00723846
3126.31	0.000131226	0.00495087
3128.65	-0.698578	-0.0178253
3130.99	0.000463867	0.00723816
3133.31	0.000106812	0.00495453
3135.65	-0.697632	-0.0178558
3137.99	0.000375366	0.00724976
3140.31	0.000341797	0.00495422
3142.65	-0.697784	-0.0178925
3144.99	-0.000238037	0.00721405
3147.31	0.000695801	0.00492218
3149.65	-0.698303	-0.0178894
3151.99	-0.00020752	0.00721283
3154.31	-0.000216675	0.00493317
3156.65	-0.6987	-0.0179016
3158.99	-0.000585937	0.00722595
3161.31	0.000268555	0.0049411
3163.65	-0.697876	-0.0179077
3165.99	0.000140381	0.007229
3168.31	0.000820923	0.00494843
3170.65	-0.697754	-0.0179077
3172.99	-0.000540161	0.00723877
3175.31	-0.000436401	0.00496368
3177.65	-0.698029	-0.0179077
3179.99	-6.40869e-05	0.00724304
3182.31	0.000415039	0.00496796
3184.65	-0.699005	-0.0178894
3186.99	0.000360107	0.00723511
3189.31	0.000531006	0.00496826
3191.65	-0.697906	-0.0178864
3193.99	0.000784302	0.00723267
3196.31	0.000158691	0.00497253
3198.65	-0.6987	-0.0178833
3200.99	0.000125122	0.00722992
3203.31	0.000942993	0.00496979
3205.65	-0.698242	-0.0178894
3207.99	-0.000112915	0.00723145
3210.31	0.000152588	0.00497192
3212.65	-0.697601	-0.0178772
3214.99	-1.52588e-05	0.00722595
3217.31	0.000646973	0.0049646
3219.65	-0.699127	-0.0178589
3221.99	0.000598145	0.00721069
3224.31	0.000469971	0.0049646
3226.65	-0.698212	-0.0178558
3228.99	0.000634766	0.00720612
3231.31	0.000384521	0.00496857
3233.65	-0.698303	-0.0178497
3235.99	-0.000445557	0.00720886
3238.31	-0.000357056	0.00496704
3240.65	-0.697754	-0.0178467
3242.99	-0.000219727	0.00720245
3245.31	0.000762939	0.00495911
3247.65	-0.698151	-0.0178253
3249.99	0.000671387	0.00718353
3252.31	0.000772095	0.0049649
3254.65	-0.698669	-0.0178284
3256.99	0.000796509	0.00719055
3259.31	-0.000183105	0.00496613
3261.65	-0.698456	-0.0178223
3263.99	-0.00017395	0.00719177
3266.31	0.000305176	0.00496979
3268.65	-0.698608	-0.0178284
3270.99	0.000765991	0.00718323
3273.31	0.000820923	0.00496521
3275.65	-0.698303	-0.0178284
3277.99	-0.000643921	0.00718903
3280.31	-0.000619507	0.00497406
3282.65	-0.697876	-0.0178162
3284.99	-0.000408936	0.00718811
3287.31	0.000808716	0.00496796
3289.65	-0.697968	-0.0178223
3291.99	0.00057373	0.00717804
3294.31	-0.000564575	0.00497772
3296.65	-0.697571	-0.0178131
3298.99	-0.000683594	0.00717834
3301.31	0.000775146	0.00496735
3303.65	-0.698578	-0.0178009
3305.99	-3.05176e-06	0.00717438
3308.31	-0.000421143	0.00497437
3310.65	-0.698853	-0.0177979
3312.99	0.000634766	0.00716064
3315.31	-0.000375366	0.00497559
3317.65	-0.699158	-0.0177979
3319.99	-0.000402832	0.00716736
3322.31	0.000784302	0.00496582
3324.65	-0.697723	-0.0177948
3326.99	0.000753784	0.00715973
3329.31	-1.52588e-05	0.00497314
3331.65	-0.698334	-0.0177948
3333.99	0.000558472	0.00716064
3336.31	0.000601196	0.0049765
3338.65	-0.698822	-0.0177856
3340.99	-0.000109863	0.00716705
3343.31	0.000692749	0.0049765
3345.65	-0.699005	-0.017804
3347.99	0.000518799	0.0071637
3350.31	0.000717163	0.0049823
3352.65	-0.697754	-0.017804
3354.99	0.000369263	0.00716187
3357.31	0.000289917	0.00499268
3359.65	-0.697876	-0.017807
3361.99	3.05176e-06	0.00717072
3364.31	0.000561523	0.00498749
3366.65	-0.698425	-0.0178345
3368.99	0.000488281	0.00717651
3371.31	0.000317383	0.00499329
3373.65	-0.698395	-0.0178284
3375.99	0.000909424	0.00717957
3378.31	0.000793457	0.00499847
3380.65	-0.698059	-0.0178162
3382.99	-0.000292969	0.00718506
3385.31	0.000790405	0.005
3387.65	-0.697906	-0.0178253
3389.99	0.000323486	0.00718475
3392.31	-0.000491333	0.00500122
3394.65	-0.698944	-0.017868
3396.99	-0.00045166	0.00717834
3399.31	3.66211e-05	0.00499542
3401.65	-0.697968	-0.0178864
3403.99	-0.000650024	0.00718628
3406.31	0.000808716	0.00500122
3408.65	-0.699188	-0.0178833
3410.99	0.000817871	0.00718018
3413.31	-0.000634766	0.00501587
3415.65	-0.699036	-0.0178955
3417.99	-7.62939e-05	0.00718781
3420.31	-4.27246e-05	0.00501526
3422.65	-0.698547	-0.0179016
3424.99	-0.000161743	0.00719391
3427.31	-0.000149536	0.00502197
3429.65	-0.697906	-0.0178955
3431.99	-0.000759888	0.00719208
3434.31	-0.000732422	0.00502319
3436.65	-0.698975	-0.0178864
3438.99	-0.000656128	0.00719055
3441.31	-0.00032959	0.00502045
3443.65	-0.698761	-0.0178711
3445.99	-0.000558472	0.00718658
3448.31	0.000561523	0.00502136
3450.65	-0.698517	-0.0179077
3452.99	0.000689697	0.00719391
3455.31	0.00057373	0.00502106
3457.65	-0.697754	-0.0179291
3459.99	0.000485229	0.00719971
3462.31	0.000863647	0.00502136
3464.65	-0.697723	-0.0179352
3466.99	-0.000610352	0.00720795
3469.31	3.96729e-05	0.00502563
3471.65	-0.698608	-0.0179443
3473.99	-0.00010376	0.00721741
3476.31	0.000765991	0.00503235
3478.65	-0.69812	-0.0179535
3480.99	-0.000357056	0.00721771
3483.31	9.76562e-05	0.0050473
3485.65	-0.69809	-0.017984
3487.99	-0.000500488	0.00722992
3490.31	4.88281e-05	0.00505005
3492.65	-0.698975	-0.0179749
3494.99	0.000692749	0.00722015
3497.31	0.000900269	0.00504639
3499.65	-0.698181	-0.0179993
3501.99	-0.000784302	0.0072348
3504.31	0.000985718	0.00505493
3506.65	-0.697968	-0.0180023
3508.99	0.000582886	0.00723846
3511.31	-0.00043335	0.00506744
3513.65	-0.698059	-0.0180206
3515.99	-0.000430298	0.00725098
3518.31	0.000765991	0.00506775
3520.65	-0.698669	-0.0180359
3522.99	-0.000244141	0.0072525
3525.31	-0.000158691	0.00507782
3527.65	-0.69754	-0.0180573
3529.99	-0.000186157	0.00725586
3532.31	0.000115967	0.00508209
3534.65	-0.698853	-0.0180573
3536.99	-0.000784302	0.00727142
3539.31	0.000152588	0.00508331
3541.65	-0.698639	-0.0180786
3543.99	-0.000234985	0.00727081
3546.31	0.000848389	0.00509064
3548.65	-0.697571	-0.0180878
3550.99	-6.10352e-06	0.00727203
3553.31	-0.000714111	0.00510437
3555.65	-0.699097	-0.0181152
3557.99	0.000222778	0.00728516
3560.31	-0.000515747	0.00511505
3562.65	-0.69751	-0.0181305
3564.99	0.000350952	0.00729004
3567.31	-0.000354004	0.0051178
3569.65	-0.698517	-0.0181396
3571.99	0.000546265	0.00728485
3574.31	-0.000259399	0.00511597
3576.65	-0.698212	-0.0181213
3578.99	-0.00039978	0.00729614
3581.31	0.000784302	0.00511597
3583.65	-0.698517	-0.0181274
3585.99	-0.000238037	0.00729279
3588.31	0.000457764	0.00511719
3590.65	-0.698639	-0.0181335
3592.99	0.000448608	0.00729187
3595.31	0.000128174	0.00512543
3597.65	-0.698395	-0.0181244
3599.99	-0.000637817	0.00729706
3602.31	-0.000479126	0.00513092
3604.65	-0.697723	-0.0181458
3606.99	-0.000643921	0.00729095
3609.31	-0.000177002	0.00513184
3611.65	-0.699005	-0.0181274
3613.99	0.000317383	0.00728271
3616.31	0.000289917	0.00513031
3618.65	-0.697968	-0.0181305
3620.99	-0.000341797	0.00728882
3623.31	0.000784302	0.00513031
3625.65	-0.698425	-0.0181396
3627.99	-0.000402832	0.00729218
3630.31	0.000930786	0.00513123
3632.65	-0.699127	-0.0181396
3634.99	-0.000720215	0.00730042
3637.31	-0.000106812	0.0051416
3639.65	-0.69754	-0.0181641
3641.99	0.000830078	0.00729889
3644.31	-3.35693e-05	0.00514618
3646.65	-0.69754	-0.0181732
3648.99	0.00055542	0.00730835
3651.31	0.000317383	0.0051474
3653.65	-0.697815	-0.0181976
3655.99	-0.000598145	0.00732117
3658.31	-0.000183105	0.00516022
3660.65	-0.69751	-0.0182098
3662.99	0.000866699	0.0073288
3665.31	-0.00012207	0.00516632
3667.65	-0.698181	-0.0182251
3669.99	0.000180054	0.00733368
3672.31	-0.000561523	0.00516785
3674.65	-0.69754	-0.0182434
3676.99	0.00045166	0.00733185
3679.31	0.00010376	0.00516418
3681.65	-0.698517	-0.0182556
3683.99	-0.000613403	0.00734894
3686.31	0.000366211	0.00517487
3688.65	-0.697418	-0.0182831
3690.99	0.000564575	0.0073468
3693.31	3.66211e-05	0.00517731
3695.65	-0.698029	-0.0183044
3697.99	-0.000689697	0.00735291
3700.31	0.000891113	0.00517914
3702.65	-0.699127	-0.0183075
3704.99	-0.000650024	0.00736176
3707.31	0.000234985	0.00518768
3709.65	-0.69873	-0.0183136
3711.99	0.000805664	0.00734985
3714.31	0.000564575	0.00518188
3716.61	6.40869e-05	0.00386536