Folder: electrochromicfilms/Edgar/20240607/20240607/electrodeposition_pulsed_potential_20240607_C (part 2)

File: pulses_2000_to_3000.txt
Time (s)	WE(1).Potential (V)	WE(1).Current (A)
1599.18	-0.698334	-0.0206482
1601.52	0.000479126	0.00779114
1603.84	0.00032959	0.00422546
1606.18	-0.698486	-0.0183411
1608.52	-0.000549316	0.007901
1610.84	0.000387573	0.00427002
1613.18	-0.697754	-0.0183228
1615.52	-0.000643921	0.00791321
1617.84	0.000750732	0.00429138
1620.18	-0.698425	-0.0182953
1622.52	7.32422e-05	0.00791931
1624.84	0.000131226	0.00430389
1627.18	-0.698669	-0.0182983
1629.52	-5.79834e-05	0.00791321
1631.84	0.000170898	0.00431274
1634.18	-0.698822	-0.0182831
1636.52	-0.000604248	0.00791016
1638.84	0.000741577	0.00431854
1641.18	-0.698212	-0.018277
1643.52	0.000405884	0.0079071
1645.84	0.000164795	0.00432343
1648.18	-0.697601	-0.01828
1650.52	-0.000692749	0.0079071
1652.84	3.05176e-06	0.0043335
1655.18	-0.6987	-0.018277
1657.52	0.000592041	0.007901
1659.84	-7.01904e-05	0.0043399
1662.18	-0.698578	-0.0182678
1664.52	0.000448608	0.00788574
1666.84	-1.2207e-05	0.0043457
1669.18	-0.698761	-0.0182587
1671.52	-0.000411987	0.00788574
1673.84	-0.000476074	0.00435486
1676.18	-0.698364	-0.0182648
1678.52	-0.000662231	0.00788574
1680.84	0.000762939	0.00435211
1683.18	-0.697815	-0.0182465
1685.52	0.000164795	0.00787354
1687.84	-2.74658e-05	0.00436462
1690.18	-0.698517	-0.0182556
1692.52	-8.23975e-05	0.00787964
1694.84	-0.00010376	0.00436951
1697.18	-0.697845	-0.0182434
1699.52	0.000396729	0.00786133
1701.84	0.000564575	0.00437042
1704.18	-0.69809	-0.0182343
1706.52	0.000405884	0.00785217
1708.84	0.000164795	0.00437805
1711.18	-0.69754	-0.0182404
1713.52	-0.000512695	0.00785828
1715.84	4.57764e-05	0.00437958
1718.18	-0.698029	-0.0182281
1720.52	-0.00065918	0.00784912
1722.84	0.000524902	0.00438263
1725.18	-0.697784	-0.0182312
1727.52	0.000521851	0.00784302
1729.84	-0.000213623	0.00438843
1732.18	-0.698761	-0.018219
1734.52	0.000460815	0.00783081
1736.84	0.000814819	0.00438934
1739.18	-0.697876	-0.018219
1741.52	-0.000515747	0.00783691
1743.84	-0.000210571	0.00440033
1746.18	-0.698822	-0.0182129
1748.52	0.000418091	0.00782776
1750.84	-0.000436401	0.00440491
1753.18	-0.69873	-0.0182129
1755.52	0.000424194	0.00781555
1757.84	0.000247192	0.00440521
1760.18	-0.698578	-0.0182037
1762.52	0.00050354	0.0078064
1764.84	0.000131226	0.00440613
1767.18	-0.698395	-0.0182007
1769.52	0.000463867	0.0078064
1771.84	-0.000442505	0.00441711
1774.18	-0.698578	-0.0181946
1776.52	7.62939e-05	0.00779114
1778.84	0.000448608	0.00441772
1781.18	-0.697906	-0.0181915
1783.52	4.27246e-05	0.00779724
1785.84	-0.000418091	0.00442749
1788.18	-0.698853	-0.0181885
1790.52	-0.000546265	0.00778809
1792.84	9.76562e-05	0.00443115
1795.18	-0.698029	-0.0181763
1797.52	0.000402832	0.00778198
1799.84	0.000415039	0.00442688
1802.18	-0.698364	-0.0181854
1804.52	-0.000726318	0.00778198
1806.84	0.000491333	0.00443604
1809.18	-0.697998	-0.0181854
1811.52	0.000390625	0.00777588
1813.84	0.000482178	0.00443787
1816.18	-0.698883	-0.0181702
1818.52	-0.000167847	0.00776367
1820.84	-0.000326538	0.00444458
1823.18	-0.698059	-0.0181732
1825.52	-0.000543213	0.00776062
1827.84	0.00065918	0.00444061
1830.18	-0.698792	-0.0181641
1832.52	0.000531006	0.00774841
1834.84	0.000201416	0.00444519
1837.18	-0.697723	-0.0181793
1839.52	-0.000567627	0.00775452
1841.84	0.000341797	0.004453125
1844.18	-0.69809	-0.0181671
1846.52	-0.000357056	0.00775146
1848.84	0.000738525	0.00445251
1851.18	-0.697784	-0.0181671
1853.52	0.000320435	0.00773926
1855.84	0.000790405	0.00445831
1858.18	-0.6987	-0.018161
1860.52	-0.000439453	0.00772705
1862.84	0.00071106	0.0044635
1865.18	-0.698639	-0.0181519
1867.52	-0.00045166	0.0077301
1869.84	-0.000302124	0.00447266
1872.18	-0.697998	-0.0181519
1874.52	-0.000393677	0.0077301
1876.84	0.000784302	0.0044754
1879.18	-0.697784	-0.0181488
1881.52	0.000482178	0.0077179
1883.84	0.000564575	0.00447815
1886.18	-0.698883	-0.0181335
1888.52	0.000463867	0.00771179
1890.84	-0.000253296	0.00448792
1893.18	-0.698608	-0.0181305
1895.52	-0.000613403	0.00771484
1897.84	0.000509644	0.00448517
1900.18	-0.697937	-0.0181305
1902.52	-0.000680542	0.00770874
1904.84	-0.000418091	0.00449432
1907.18	-0.697845	-0.0181305
1909.52	-0.000717163	0.00770264
1911.84	2.44141e-05	0.0044989
1914.18	-0.697754	-0.0181274
1916.52	-0.000704956	0.00769653
1918.84	-0.000384521	0.00450439
1921.18	-0.697754	-0.0181183
1923.52	-0.000671387	0.00769348
1925.84	0.000732422	0.00449951
1928.18	-0.697723	-0.0181213
1930.52	-8.23975e-05	0.00767822
1932.84	-0.000299072	0.00450775
1935.18	-0.697754	-0.0181183
1937.52	-0.000408936	0.00768738
1939.84	-0.00039978	0.00451263
1942.18	-0.697906	-0.0181213
1944.52	-0.000375366	0.00767517
1946.84	0.000701904	0.00450958
1949.18	-0.698883	-0.0181061
1951.52	5.18799e-05	0.00766907
1953.84	0.000811768	0.00451233
1956.18	-0.6987	-0.0180969
1958.52	0.000354004	0.00765991
1960.84	4.57764e-05	0.00452118
1963.18	-0.698883	-0.0180878
1965.52	-0.000692749	0.0076416
1967.84	0.000643921	0.00451172
1970.18	-0.697662	-0.0181061
1972.52	0.000170898	0.00762634
1974.84	-0.000180054	0.0045224
1977.18	-0.697693	-0.0181458
1979.52	-0.000430298	0.00765991
1981.84	0.000714111	0.00452606
1984.18	-0.698944	-0.0181396
1986.52	-0.000189209	0.00765076
1988.84	0.000332642	0.00452698
1991.18	-0.698273	-0.0181274
1993.52	-0.000680542	0.00765381
1995.84	0.000738525	0.00453094
1998.18	-0.698853	-0.0181244
2000.52	0.000497437	0.0076416
2002.84	-0.000476074	0.00454071
2005.18	-0.698639	-0.0181183
2007.52	0.000219727	0.00763855
2009.84	0.000457764	0.00453796
2012.18	-0.698608	-0.0181244
2014.52	-0.000640869	0.0076416
2016.84	0.000549316	0.00454285
2019.18	-0.698212	-0.0181274
2021.52	0.000518799	0.0076355
2023.84	0.000735474	0.00454468
2026.18	-0.697693	-0.0181213
2028.52	0.000415039	0.00762634
2030.84	-0.000231934	0.00455688
2033.18	-0.697968	-0.0181061
2035.52	0.000588989	0.00762634
2037.84	-0.000262451	0.00455933
2040.18	-0.698792	-0.0181
2042.52	-0.000253296	0.00761414
2044.84	-0.000415039	0.00456268
2047.18	-0.698639	-0.0181061
2049.52	0.000219727	0.00762024
2051.84	-0.000518799	0.00456543
2054.18	-0.698944	-0.0180969
2056.52	-0.00043335	0.00762329
2058.84	0.000701904	0.00456329
2061.18	-0.69873	-0.0180939
2063.52	-0.00065918	0.00761108
2065.84	-0.000418091	0.00457214
2068.18	-0.698395	-0.0180878
2070.52	3.05176e-06	0.00760193
2072.84	0.000390625	0.0045697
2075.18	-0.69873	-0.0180878
2077.52	9.15527e-06	0.00759277
2079.84	-2.13623e-05	0.00457672
2082.18	-0.69812	-0.0180908
2084.52	-0.000671387	0.00758972
2086.84	0.000253296	0.00457611
2089.18	-0.698639	-0.0180756
2091.52	-0.00010376	0.00759583
2093.84	-0.000314331	0.00458374
2096.18	-0.697998	-0.0180847
2098.52	0.000366211	0.00758362
2100.84	0.000192261	0.00458618
2103.18	-0.698944	-0.0180695
2105.52	-0.000698853	0.00758057
2107.84	-0.000418091	0.00459015
2110.18	-0.697693	-0.0180695
2112.52	0.000463867	0.00756836
2114.84	-0.000180054	0.00459076
2117.18	-0.697784	-0.0180725
2119.52	0.000427246	0.00757446
2121.84	-4.27246e-05	0.00459656
2124.18	-0.697662	-0.0180695
2126.52	-0.000668335	0.00756836
2128.84	-0.00020752	0.00459869
2131.18	-0.698761	-0.0180511
2133.52	0.000192261	0.00755615
2135.84	0.000170898	0.004599
2138.18	-0.697876	-0.0180634
2140.52	0.000436401	0.00755615
2142.84	0.000704956	0.00459839
2145.18	-0.697784	-0.0180542
2147.52	-0.000109863	0.00755615
2149.84	0.000848389	0.00460114
2152.18	-0.698914	-0.0180511
2154.52	-0.000439453	0.00753784
2156.84	-0.000213623	0.00460693
2159.18	-0.698761	-0.0180389
2161.52	0.000497437	0.00753784
2163.84	-5.79834e-05	0.00460876
2166.18	-0.697906	-0.018045
2168.52	-0.000378418	0.00753479
2170.84	0.000265503	0.004609375
2173.18	-0.697845	-0.0180359
2175.52	0.000195313	0.00753784
2177.84	-0.000402832	0.00461456
2180.18	-0.697601	-0.0180389
2182.52	-0.000543213	0.00752563
2184.84	0.000698853	0.00461334
2187.18	-0.697784	-0.0180359
2189.52	-0.000616455	0.00753174
2191.84	-0.000402832	0.00462433
2194.18	-0.698669	-0.0180298
2196.52	-8.54492e-05	0.00753174
2198.84	-0.000112915	0.00462677
2201.18	-0.698303	-0.0180176
2203.52	-0.000469971	0.00751953
2205.84	0.000640869	0.00462311
2208.18	-0.698761	-0.0180176
2210.52	-0.000180054	0.00752563
2212.84	0.000341797	0.00462738
2215.18	-0.698303	-0.0180237
2217.52	-0.000582886	0.00751953
2219.84	0.000134277	0.00463135
2222.18	-0.698151	-0.0180084
2224.53	0.000512695	0.00750732
2226.85	-0.000473022	0.00464142
2229.19	-0.698944	-0.0180084
2231.53	0.000244141	0.00750397
2233.85	-0.000448608	0.00464447
2236.19	-0.697662	-0.0180054
2238.53	-0.000286865	0.00749908
2240.85	-0.000274658	0.00464813
2243.19	-0.698914	-0.0179993
2245.53	-0.000552368	0.00749817
2247.85	-0.000363159	0.00465179
2250.19	-0.698364	-0.0180084
2252.53	0.000717163	0.0074884
2254.85	-0.000170898	0.00465271
2257.19	-0.698364	-0.0179932
2259.53	0.00020752	0.00748413
2261.85	0.000704956	0.00464874
2264.19	-0.698608	-0.0179932
2266.53	0.000601196	0.00747803
2268.85	-3.05176e-06	0.00465942
2271.19	-0.698639	-0.0179901
2273.53	-0.000500488	0.00748444
2275.85	0.00050354	0.00465393
2278.19	-0.69873	-0.0179871
2280.53	5.18799e-05	0.00747742
2282.85	-0.000106812	0.00466431
2285.19	-0.698853	-0.0179779
2287.53	-0.000524902	0.0074646
2289.85	-0.000350952	0.00465302
2292.19	-0.698456	-0.0179901
2294.53	-7.62939e-05	0.00745697
2296.85	-3.35693e-05	0.0046582
2299.15	-6.71387e-05	0.00302826

File: pulses_3000_to_4000.txt
Time (s)	WE(1).Potential (V)	WE(1).Current (A)
2307.95	-0.698486	-0.0210297
2310.29	0.000146484	0.007265625
2312.61	-0.000183105	0.00459412
2314.95	-0.697937	-0.0180298
2317.29	-0.000460815	0.00740631
2319.61	0.000616455	0.00463623
2321.95	-0.697754	-0.0179993
2324.29	0.000622559	0.0074173
2326.61	-0.000427246	0.00465973
2328.95	-0.697937	-0.0179901
2331.29	0.000393677	0.00742615
2333.61	-0.000384521	0.00467041
2335.95	-0.697693	-0.017984
2338.29	-0.000128174	0.00743317
2340.61	-0.000439453	0.00467529
2342.95	-0.69873	-0.0179718
2345.29	-0.00038147	0.00743164
2347.61	0.000741577	0.00467316
2349.95	-0.697845	-0.0179718
2352.29	7.62939e-05	0.00742584
2354.61	-0.000314331	0.00468628
2356.95	-0.697784	-0.0179596
2359.29	0.000595093	0.00742218
2361.61	0.000668335	0.0046814
2363.95	-0.697754	-0.0179565
2366.29	-0.000338745	0.00742432
2368.61	0.000598145	0.00468658
2370.95	-0.698517	-0.0179474
2373.29	0.000610352	0.0074176
2375.61	0.000457764	0.00468872
2377.95	-0.697693	-0.0179443
2380.29	0.000482178	0.00741577
2382.61	-0.000439453	0.00469971
2384.95	-0.697998	-0.0179504
2387.29	0.000479126	0.00741577
2389.61	0.000534058	0.00469604
2391.95	-0.698853	-0.0179382
2394.29	-0.000201416	0.00741669
2396.61	0.000424194	0.00469696
2398.95	-0.698822	-0.0179352
2401.29	0.00065918	0.00740479
2403.61	-0.000366211	0.00470337
2405.95	-0.69873	-0.0179291
2408.29	-0.000314331	0.00740845
2410.61	0.000744629	0.00470123
2412.95	-0.698456	-0.0179291
2415.29	0.000698853	0.00739929
2417.61	-9.15527e-05	0.00470856
2419.95	-0.698669	-0.0179169
2422.29	-9.76562e-05	0.00740112
2424.61	-0.000418091	0.00471313
2426.95	-0.697693	-0.0179291
2429.29	-0.000454712	0.00739746
2431.61	-2.74658e-05	0.00471619
2433.95	-0.697632	-0.0179169
2436.29	0.000344849	0.00738647
2438.61	0.00065918	0.00471039
2440.95	-0.697662	-0.017923
2443.29	-0.000326538	0.00739166
2445.61	0.000137329	0.00471527
2447.95	-0.698456	-0.0179077
2450.29	0.000622559	0.00738007
2452.61	-9.46045e-05	0.00471497
2454.95	-0.698608	-0.0179077
2457.29	0.000192261	0.00738373
2459.61	-8.23975e-05	0.00472351
2461.95	-0.698944	-0.0179016
2464.29	-0.000488281	0.00737946
2466.61	0.000323486	0.00471924
2468.95	-0.697937	-0.0179108
2471.29	-0.000408936	0.00737762
2473.61	0.000610352	0.00472076
2475.95	-0.698944	-0.0178955
2478.29	-0.000534058	0.00737305
2480.61	0.000723267	0.00472229
2482.95	-0.698212	-0.0179047
2485.29	0.000634766	0.00736328
2487.61	-0.00039978	0.00473114
2489.95	-0.698547	-0.0178925
2492.29	-0.000259399	0.00736511
2494.61	0.000762939	0.00472595
2496.95	-0.698792	-0.0178925
2499.29	-0.000271606	0.00736176
2501.61	-0.000509644	0.00473389
2503.95	-0.699005	-0.0178925
2506.29	-0.000421143	0.00735962
2508.61	0.00057373	0.00472992
2510.95	-0.697784	-0.0178925
2513.29	0.0006073	0.00734833
2515.61	0.000726318	0.00473358
2517.95	-0.698425	-0.0178802
2520.29	-0.000268555	0.00734955
2522.61	0.000650024	0.00473816
2524.95	-0.697754	-0.0178864
2527.29	0.000579834	0.00733948
2529.61	-0.00022583	0.00474182
2531.95	-0.697723	-0.0178864
2534.29	-0.000131226	0.00734039
2536.61	-0.000402832	0.00474518
2538.95	-0.698914	-0.0178741
2541.29	-0.00032959	0.007341
2543.61	-0.000100708	0.00474823
2545.95	-0.697693	-0.0178741
2548.29	0.000219727	0.0073288
2550.61	0.000735474	0.00474274
2552.95	-0.698181	-0.0178772
2555.29	0.000326538	0.00732513
2557.61	-0.000167847	0.00475067
2559.95	-0.698517	-0.0178619
2562.29	0.000543213	0.00732178
2564.61	-0.000415039	0.00475281
2566.95	-0.698151	-0.017865
2569.29	-3.05176e-05	0.00732391
2571.61	-0.000115967	0.00475037
2573.95	-0.69809	-0.0178619
2576.29	7.93457e-05	0.00732086
2578.61	0.000616455	0.0047525
2580.95	-0.698822	-0.0178497
2583.29	0.000613403	0.00731201
2585.61	-0.000442505	0.00475861
2587.95	-0.698914	-0.0178497
2590.29	-0.000515747	0.00731689
2592.61	-0.000299072	0.00476318
2594.95	-0.698029	-0.0178436
2597.29	-0.000408936	0.00730835
2599.61	0.000250244	0.00475769
2601.95	-0.697723	-0.0178467
2604.29	-0.000314331	0.00730743
2606.61	0.000643921	0.00476013
2608.95	-0.697968	-0.0178467
2611.29	-0.000222778	0.00730347
2613.61	-0.000268555	0.0047699
2615.95	-0.698212	-0.0178375
2618.29	0.000457764	0.0072934
2620.61	0.000741577	0.00476257
2622.95	-0.697693	-0.0178467
2625.29	0.000390625	0.00729492
2627.61	0.000125122	0.0047699
2629.95	-0.69873	-0.0178345
2632.29	-0.000427246	0.00729675
2634.61	-0.000473022	0.00477203
2636.95	-0.697723	-0.0178314
2639.29	0.000588989	0.00728455
2641.61	0.000256348	0.00476898
2643.95	-0.697693	-0.0178314
2646.29	-0.000521851	0.00728912
2648.61	-0.00043335	0.00477722
2650.95	-0.698364	-0.0178223
2653.29	0.000558472	0.00727844
2655.61	0.000653076	0.00477692
2657.95	-0.697693	-0.0178223
2660.29	-0.000585937	0.00728241
2662.61	0.000143433	0.004776
2664.95	-0.697723	-0.0178192
2667.29	0.000424194	0.00727173
2669.61	-0.000439453	0.00478424
2671.95	-0.697662	-0.0178192
2674.29	-0.000146484	0.00727539
2676.61	0.000393677	0.00478363
2678.95	-0.699005	-0.0178192
2681.29	-0.000100708	0.00727417
2683.61	0.000375366	0.0047818
2685.95	-0.6987	-0.0178162
2688.29	-0.000479126	0.00726929
2690.61	-0.000100708	0.00478638
2692.95	-0.697723	-0.0178101
2695.29	0.000640869	0.00725891
2697.61	0.000302124	0.00478333
2699.95	-0.698334	-0.017804
2702.29	0.00022583	0.00725708
2704.61	-4.57764e-05	0.00479218
2706.95	-0.697754	-0.017807
2709.29	0.000384521	0.00725616
2711.61	-0.000250244	0.00479553
2713.95	-0.698212	-0.0178131
2716.29	0.000665283	0.0072522
2718.61	-0.000143433	0.00479279
2720.95	-0.697601	-0.017804
2723.29	-0.000299072	0.00725555
2725.61	-0.00017395	0.00479675
2727.95	-0.698669	-0.0177948
2730.29	-0.000292969	0.0072525
2732.61	0.000720215	0.00479309
2734.95	-0.698883	-0.0177917
2737.29	0.00057373	0.00723999
2739.61	-0.000469971	0.00480377
2741.95	-0.698486	-0.0177856
2744.29	-0.00055542	0.00724518
2746.61	-0.000442505	0.00480377
2748.95	-0.697754	-0.0177948
2751.29	0.000646973	0.0072348
2753.61	0.000604248	0.00480133
2755.95	-0.698151	-0.0177887
2758.29	0.000366211	0.0072348
2760.61	0.000430298	0.00479919
2762.95	-0.697601	-0.0177826
2765.29	0.000210571	0.00718018
2767.61	-0.000274658	0.00477112
2769.95	-0.698853	-0.017807
2772.29	0.000125122	0.00718292
2774.61	-0.000457764	0.00476868
2776.95	-0.69812	-0.0178375
2779.29	-0.00050354	0.00721649
2781.61	0.000799561	0.00477753
2783.95	-0.697845	-0.017865
2786.29	-0.000302124	0.00721558
2788.61	0.000183105	0.00479065
2790.95	-0.698059	-0.0178619
2793.29	0.000531006	0.00721649
2795.61	-0.000415039	0.0047995
2797.95	-0.698547	-0.0178375
2800.29	9.76562e-05	0.00722168
2802.61	-0.000479126	0.0048056
2804.95	-0.699005	-0.0178345
2807.29	-0.00027771	0.0072168
2809.61	-0.000146484	0.00480927
2811.95	-0.697998	-0.0178314
2814.29	-0.000335693	0.00722015
2816.61	-0.000424194	0.00481262
2818.95	-0.698669	-0.0178192
2821.29	0.000125122	0.0072171
2823.61	0.000622559	0.00480743
2825.95	-0.699005	-0.0178223
2828.29	0.000387573	0.00721649
2830.61	-0.000418091	0.00481812
2832.95	-0.698578	-0.0178162
2835.29	0.000579834	0.00720917
2837.61	0.000750732	0.00481323
2839.95	-0.698761	-0.0178101
2842.29	-0.000515747	0.00721161
2844.61	-0.000259399	0.00481842
2846.95	-0.697632	-0.0178131
2849.29	-0.000283813	0.00720398
2851.61	0.000613403	0.00481476
2853.95	-0.698395	-0.0178223
2856.29	0.000238037	0.00720093
2858.61	0.00072937	0.00481842
2860.95	-0.698914	-0.017807
2863.29	-0.000524902	0.0072049
2865.61	-0.000338745	0.00482483
2867.95	-0.698303	-0.0178009
2870.29	-0.000509644	0.00720245
2872.61	0.000656128	0.00482239
2874.96	-0.697876	-0.0178101
2877.3	0.000488281	0.00719269
2879.62	0.000564575	0.00482544
2881.96	-0.698029	-0.0177979
2884.3	0.000579834	0.00718994
2886.62	-0.000335693	0.00483398
2888.96	-0.6987	-0.0177917
2891.3	0.000469971	0.0071875
2893.62	-0.000296021	0.00483551
2895.96	-0.698853	-0.0177948
2898.3	-0.000421143	0.00719269
2900.62	0.000531006	0.00483368
2902.96	-0.697723	-0.0177399
2905.3	-0.000592041	0.00709412
2907.62	0.000106812	0.00475861
2909.96	-0.698517	-0.017807
2912.3	0.00050354	0.0070816
2914.62	0.000189209	0.00477753
2916.96	-0.697815	-0.0178741
2919.3	-0.000491333	0.0071402
2921.62	-0.000485229	0.00479797
2923.96	-0.698822	-0.0178406
2926.3	-3.96729e-05	0.00715118
2928.62	0.000756836	0.00480499
2930.96	-0.697784	-0.0178345
2933.3	-0.000497437	0.00715515
2935.62	-0.000448608	0.00482117
2937.96	-0.69809	-0.0178284
2940.3	0.000411987	0.00715271
2942.62	0.000372314	0.00482117
2944.96	-0.698212	-0.0178101
2947.3	0.000540161	0.00715485
2949.62	0.000112915	0.00483154
2951.96	-0.698914	-0.017807
2954.3	0.000387573	0.00715424
2956.62	-0.000164795	0.00483276
2958.96	-0.698151	-0.0177948
2961.3	7.93457e-05	0.00715424
2963.62	-0.000375366	0.00483978
2965.96	-0.698914	-0.0177979
2968.3	-0.000372314	0.00715607
2970.62	-0.000436401	0.00484283
2972.96	-0.697662	-0.0178009
2975.3	0.000634766	0.00714996
2977.62	0.000338745	0.00483795
2979.96	-0.697601	-0.0177948
2982.3	0.000546265	0.007146
2984.62	5.49316e-05	0.00484314
2986.96	-0.698883	-0.0177826
2989.3	0.000387573	0.00714752
2991.62	-0.000164795	0.0048468
2993.96	-0.698303	-0.0177948
2996.3	0.000582886	0.0071402
2998.62	-0.000137329	0.00485107
3000.96	-0.697754	-0.0177979
3003.3	-0.000463867	0.0071463
3005.62	0.000140381	0.0048468
3007.92	-0.000286865	0.00345551