Folder: electrochromicfilms/Edgar/20230907/20230907/electrodeposition_WO3_thin_films_onto_ITO_A/wo3_film_continuous_electrodeposition_A

File: CA_2
Time (s)	WE(1).Potential (V)	WE(1).Current (A)
19.9108	-0.699585	-0.00466095
21.9108	-0.699371	-0.00448242
23.9108	-0.698975	-0.00399261
25.9108	-0.699463	-0.0036087
27.9108	-0.699219	-0.00330444
29.9108	-0.699402	-0.00306183
31.9108	-0.69931	-0.00286102
33.9108	-0.69986	-0.00269135
35.9108	-0.699799	-0.00254608
37.9108	-0.699585	-0.00242035
39.9108	-0.69928	-0.0023111
41.9108	-0.699432	-0.00221436
43.9108	-0.699097	-0.0021283
45.9108	-0.699158	-0.00205231
47.9108	-0.69989	-0.00198212
49.9108	-0.699585	-0.00191864
51.9108	-0.69931	-0.00186005
53.9108	-0.699921	-0.00180664
55.9108	-0.69928	-0.0017572
57.9108	-0.699829	-0.00171173
59.9108	-0.699249	-0.00166901
61.9108	-0.698975	-0.00162842
63.9108	-0.699829	-0.00158936
65.9108	-0.69986	-0.00155182
67.9108	-0.699005	-0.0015155
69.9108	-0.699829	-0.00147888
71.9108	-0.69931	-0.00144714
73.9108	-0.699036	-0.00141571
75.9108	-0.699432	-0.00138428
77.9108	-0.699615	-0.00135345
79.9108	-0.69986	-0.00132385
81.9108	-0.699554	-0.00129517
83.9108	-0.699829	-0.0012674
85.9108	-0.699005	-0.00124115
87.9108	-0.699402	-0.00121521
89.9108	-0.699066	-0.00118988
91.9108	-0.699829	-0.00116577
93.9108	-0.699097	-0.00114227
95.9108	-0.699463	-0.00111908
97.9108	-0.699036	-0.0010968
99.9108	-0.69986	-0.00107513
101.911	-0.699219	-0.00105347
103.911	-0.699005	-0.00103241
105.911	-0.699829	-0.00101196
107.911	-0.699554	-0.000993347
109.911	-0.698853	-0.000974121
111.911	-0.699738	-0.0009552
113.911	-0.698761	-0.000937195
115.911	-0.698792	-0.0009198
117.911	-0.699158	-0.00090271
119.911	-0.698975	-0.00088623
121.911	-0.698883	-0.000870361
123.911	-0.699463	-0.000855103
125.911	-0.699829	-0.000839539
127.911	-0.699341	-0.00082489
129.911	-0.699646	-0.000810852
131.911	-0.699097	-0.000797119
133.911	-0.699554	-0.000783997
135.911	-0.699554	-0.000771179
137.911	-0.699646	-0.000758972
139.911	-0.698975	-0.00074707
141.911	-0.698883	-0.000735779
143.911	-0.698853	-0.000724487
145.911	-0.699097	-0.000713806
147.911	-0.698883	-0.00070343
149.911	-0.699646	-0.000693665
151.911	-0.699768	-0.000683899
153.911	-0.699127	-0.000674438
155.911	-0.699097	-0.000665588
157.911	-0.699097	-0.000656433
159.911	-0.699249	-0.000646362
161.911	-0.699371	-0.000639648
163.911	-0.699799	-0.000632019
165.911	-0.699677	-0.000624084
167.911	-0.699036	-0.000616455
169.911	-0.69928	-0.000609131
171.911	-0.699585	-0.000601807
173.911	-0.699219	-0.000594788
175.911	-0.69986	-0.000588074
177.911	-0.699829	-0.000581055
179.911	-0.699707	-0.000574951
181.911	-0.699799	-0.000569153
183.911	-0.699585	-0.000563049
185.911	-0.698883	-0.000557251
187.911	-0.698975	-0.000551758
189.911	-0.699402	-0.00054657
191.911	-0.69928	-0.000541077
193.911	-0.699371	-0.000536194
195.911	-0.699371	-0.000531006
197.911	-0.699036	-0.000526733
199.911	-0.699097	-0.000521851
201.911	-0.699707	-0.000517273
203.911	-0.698914	-0.000512695
205.911	-0.699493	-0.000508728
207.911	-0.699615	-0.000504456
209.911	-0.699127	-0.000500488
211.911	-0.699738	-0.000496521
213.911	-0.699005	-0.000492371
215.911	-0.699677	-0.000488861
217.911	-0.699585	-0.000485199
219.911	-0.699615	-0.000481567
221.911	-0.699127	-0.000478363
223.911	-0.699615	-0.000475037
225.911	-0.699066	-0.000471771
227.911	-0.699036	-0.000468506
229.911	-0.699188	-0.000465485
231.911	-0.699219	-0.000462616
233.911	-0.699341	-0.0004599
235.911	-0.699677	-0.000457214
237.911	-0.699371	-0.00045462
239.911	-0.699249	-0.000451935
241.911	-0.699341	-0.000449463
243.911	-0.699188	-0.000446869
245.911	-0.699249	-0.00044455
247.911	-0.698975	-0.000442261
249.911	-0.699615	-0.000440582
251.911	-0.699371	-0.000438629
253.911	-0.699799	-0.00043692
255.911	-0.699585	-0.000433594
257.911	-0.699585	-0.000432434
259.911	-0.699432	-0.000430725
261.911	-0.699707	-0.000429169
263.911	-0.699036	-0.000427307
265.911	-0.698975	-0.000425507
267.911	-0.699432	-0.000423615
269.911	-0.699738	-0.000421753
271.911	-0.699097	-0.000419952
273.911	-0.699646	-0.000418396
275.911	-0.699158	-0.000416687
277.911	-0.699738	-0.000415161
279.911	-0.699585	-0.000414001
281.911	-0.699768	-0.000412476
283.911	-0.699677	-0.000411163
285.911	-0.699524	-0.000409668
287.911	-0.699615	-0.000408386
289.911	-0.699432	-0.000407104
291.911	-0.699768	-0.000405701
293.911	-0.699036	-0.000404449
295.911	-0.698944	-0.000403046
297.911	-0.698975	-0.000401764
299.911	-0.699646	-0.000400177
301.911	-0.699585	-0.000398987
303.911	-0.699005	-0.000397339
305.911	-0.699768	-0.000396667
307.911	-0.699158	-0.000395538
309.911	-0.698944	-0.000394592
311.911	-0.698944	-0.000393494
313.911	-0.698975	-0.000392212
315.911	-0.699463	-0.000391266
317.911	-0.698944	-0.000390045
319.911	-0.699829	-0.000388916
321.911	-0.699402	-0.000388
323.911	-0.699188	-0.000386963
325.911	-0.699646	-0.000386017
327.911	-0.699799	-0.000385223
329.911	-0.698914	-0.000384247
331.911	-0.699158	-0.000383209
333.911	-0.699249	-0.000382355
335.911	-0.699036	-0.000381561
337.911	-0.699066	-0.000380737
339.911	-0.698853	-0.000379852
341.911	-0.699036	-0.000379333
343.911	-0.699768	-0.000378387
345.911	-0.699829	-0.00037796
347.911	-0.699463	-0.00037738
349.911	-0.699005	-0.000376434
351.911	-0.699158	-0.000375397
353.911	-0.699097	-0.000374969
355.911	-0.699158	-0.000374237
357.911	-0.699432	-0.000373383
359.911	-0.699615	-0.00037262
361.911	-0.699524	-0.000371887
363.911	-0.699524	-0.000371338
365.911	-0.698944	-0.000370514
367.911	-0.699677	-0.000370392
369.911	-0.699677	-0.000369781
371.911	-0.699707	-0.00036911
373.911	-0.698853	-0.000368927
375.911	-0.699097	-0.000368286
377.911	-0.699188	-0.000367828
379.911	-0.69928	-0.000367523
381.911	-0.699219	-0.000367065
383.911	-0.699585	-0.000365204
385.911	-0.69986	-0.00036615
387.911	-0.699768	-0.000365662
389.911	-0.699768	-0.000365265
391.911	-0.699646	-0.000364746
393.911	-0.699768	-0.000364471
395.911	-0.69928	-0.000364075
397.911	-0.699738	-0.000363525
399.911	-0.699799	-0.000363068
401.911	-0.699524	-0.000362793
403.911	-0.698975	-0.000362244
405.911	-0.699127	-0.000361481
407.911	-0.69986	-0.000361389
409.911	-0.699371	-0.00036084
411.911	-0.699524	-0.000360596
413.911	-0.699738	-0.000360077
415.911	-0.699799	-0.000359955
417.911	-0.699646	-0.000359436
419.911	-0.698944	-0.000359039
421.911	-0.699707	-0.000358704
423.911	-0.698975	-0.000358704
425.911	-0.699615	-0.000358246
427.911	-0.698975	-0.000357819
429.911	-0.699066	-0.000357574
431.911	-0.698914	-0.000357086
433.911	-0.69931	-0.000356873
435.911	-0.699646	-0.000356842
437.911	-0.698975	-0.000356934
439.911	-0.699432	-0.000356567
441.911	-0.698883	-0.000356232
443.911	-0.699402	-0.000355865
445.911	-0.699493	-0.000356079
447.911	-0.698975	-0.000355408
449.911	-0.699768	-0.000355255
451.911	-0.699371	-0.000354828
453.911	-0.699677	-0.000354614
455.911	-0.699463	-0.000353973
457.911	-0.69986	-0.000353882
459.911	-0.699738	-0.000353577
461.911	-0.698975	-0.000353333
463.911	-0.698944	-0.000353149
465.911	-0.699768	-0.000352844
467.911	-0.699799	-0.000352234
469.911	-0.69986	-0.000351807
471.911	-0.699341	-0.000351837
473.911	-0.699799	-0.000351379
475.911	-0.699188	-0.000351105
477.911	-0.699341	-0.000351135
479.911	-0.699097	-0.000350739
481.911	-0.699493	-0.000350922
483.911	-0.699799	-0.000351044
485.911	-0.698853	-0.000350952
487.911	-0.699646	-0.000351196
489.911	-0.699127	-0.000351013
491.911	-0.699829	-0.000351227
493.911	-0.699707	-0.000351013
495.911	-0.69928	-0.000350891
497.911	-0.69931	-0.000351013
499.911	-0.699066	-0.000351257
501.911	-0.699432	-0.000351349
503.911	-0.698914	-0.000350677
505.911	-0.699707	-0.000350525
507.911	-0.699249	-0.000350372
509.911	-0.699799	-0.000350189
511.911	-0.699188	-0.000350067
513.911	-0.699646	-0.00034967
515.911	-0.699799	-0.00034967
517.911	-0.699493	-0.000349518
519.911	-0.698975	-0.000349182
521.911	-0.699768	-0.000348999
523.911	-0.69928	-0.000348236
525.911	-0.699432	-0.000347443
527.911	-0.699402	-0.00034729
529.911	-0.699097	-0.000346985
531.911	-0.699341	-0.000346619
533.911	-0.699005	-0.000346375
535.911	-0.699493	-0.000345978
537.911	-0.699371	-0.000345886
539.911	-0.699615	-0.000345764
541.911	-0.699493	-0.00034549
543.911	-0.699005	-0.00034494
545.911	-0.699188	-0.000344757
547.911	-0.699768	-0.000344299
549.911	-0.699005	-0.000343658
551.911	-0.699799	-0.000343262
553.911	-0.699799	-0.000342804
555.911	-0.699677	-0.000342468
557.911	-0.698914	-0.000342255
559.911	-0.699432	-0.0003414
561.911	-0.698914	-0.000341278
563.911	-0.699463	-0.000341095
565.911	-0.699158	-0.000341003
567.911	-0.699188	-0.000340454
569.911	-0.699738	-0.000340637
571.911	-0.699005	-0.000340607
573.911	-0.699005	-0.00034024
575.911	-0.699768	-0.000340118
577.911	-0.699677	-0.000339935
579.911	-0.699738	-0.000339935
581.911	-0.699768	-0.000339691
583.911	-0.699127	-0.000339508
585.911	-0.69989	-0.000338928
587.911	-0.699768	-0.00033847
589.911	-0.699768	-0.000338593
591.911	-0.698914	-0.000338593
593.911	-0.699402	-0.000338043
595.911	-0.699249	-0.000337891
597.911	-0.699554	-0.000338043
599.911	-0.699799	-0.000337524
601.911	-0.699402	-0.000337402
603.911	-0.698975	-0.000337402
605.911	-0.69989	-0.000336914
607.911	-0.699799	-0.000336548
609.911	-0.699463	-0.000336639
611.911	-0.699738	-0.000336273
613.911	-0.699249	-0.000336243
615.911	-0.698914	-0.000336273
617.911	-0.699829	-0.000336395
619.811	-0.69986	-0.000335968

File: OCP_1
Time (s)	WE(1).Potential (V)	OCP value (V)
2.74376	0.629272	0.629578
3.74376	0.629272
4.74376	0.629272
5.74376	0.629272
6.74376	0.629272
7.74376	0.629272
8.74376	0.629272
9.74376	0.629272
10.7438	0.629578
11.7438	0.629578
12.7438	0.629578
13.7438	0.629578
14.7438	0.629578
15.7438	0.629578
16.7438	0.629578
17.7438	0.629578

File: OCP_3
Time (s)	WE(1).Potential (V)	OCP value (V)
620.822	-0.5078125	-0.0111412
621.822	-0.444366
622.822	-0.381104
623.822	-0.331238
624.822	-0.293884
625.822	-0.266907
626.822	-0.246399
627.822	-0.23053
628.822	-0.217834
629.822	-0.207336
630.822	-0.198486
631.822	-0.190948
632.822	-0.184479
633.822	-0.178925
634.822	-0.174194
635.822	-0.170166
636.822	-0.166626
637.822	-0.163666
638.822	-0.161133
639.822	-0.158875
640.822	-0.156952
641.822	-0.155243
642.822	-0.153748
643.822	-0.152283
644.822	-0.151123
645.822	-0.150085
646.822	-0.14917
647.822	-0.1484375
648.822	-0.147705
649.822	-0.147064
650.822	-0.146484
651.822	-0.145905
652.822	-0.145447
653.822	-0.145081
654.822	-0.144592
655.822	-0.143616
656.822	-0.143311
657.822	-0.142731
658.822	-0.141998
659.822	-0.142487
660.822	-0.142365
661.822	-0.142029
662.822	-0.141693
663.822	-0.141327
664.822	-0.140869
665.822	-0.14032
666.822	-0.139801
667.822	-0.139252
668.822	-0.13855
669.822	-0.136993
670.822	-0.136383
671.822	-0.135956
672.822	-0.135284
673.822	-0.134247
674.822	-0.13266
675.822	-0.131927
676.822	-0.130463
677.822	-0.129333
678.822	-0.12796
679.822	-0.126495
680.822	-0.124878
681.822	-0.123474
682.822	-0.12204
683.822	-0.120697
684.822	-0.119324
685.822	-0.117981
686.822	-0.116608
687.822	-0.115173
688.822	-0.11377
689.822	-0.112335
690.822	-0.110962
691.822	-0.10968
692.822	-0.108398
693.822	-0.107117
694.822	-0.105896
695.822	-0.104584
696.822	-0.103302
697.822	-0.102081
698.822	-0.10083
699.822	-0.0996094
700.822	-0.0984192
701.822	-0.097168
702.822	-0.0960083
703.822	-0.0948486
704.822	-0.0938416
705.822	-0.0925598
706.822	-0.0913696
707.822	-0.0901794
708.822	-0.0890198
709.822	-0.0878906
710.822	-0.086731
711.822	-0.0856018
712.822	-0.0845337
713.822	-0.0834656
714.822	-0.0823364
715.822	-0.0812378
716.822	-0.0801392
717.822	-0.0791016
718.822	-0.0780334
719.822	-0.0769653
720.822	-0.0758667
721.822	-0.0747681
722.822	-0.0737305
723.822	-0.0726624
724.822	-0.0716858
725.822	-0.0705261
726.822	-0.069458
727.822	-0.0683289
728.822	-0.0672607
729.822	-0.0661621
730.822	-0.0651855
731.822	-0.0641479
732.822	-0.0630493
733.822	-0.0619812
734.822	-0.0609741
735.822	-0.0598755
736.822	-0.0588379
737.822	-0.0578003
738.822	-0.0567017
739.822	-0.0556335
740.822	-0.0545349
741.822	-0.0534363
742.822	-0.0523376
743.822	-0.0513
744.822	-0.0502319
745.822	-0.0491364
746.822	-0.0480377
747.822	-0.0469421
748.822	-0.0458221
749.822	-0.044751
750.822	-0.0437012
751.822	-0.0426086
752.822	-0.0415833
753.822	-0.0404449
754.822	-0.0393616
755.822	-0.0382263
756.822	-0.0370941
757.822	-0.0360565
758.822	-0.0348724
759.822	-0.0337769
760.822	-0.0327179
761.822	-0.0316437
762.822	-0.0305481
763.822	-0.0294098
764.822	-0.0283325
765.822	-0.0272186
766.822	-0.0261414
767.822	-0.025058
768.822	-0.0239929
769.822	-0.0229401
770.822	-0.0218262
771.822	-0.0207153
772.822	-0.0196411
773.822	-0.0187622
774.822	-0.0175751
775.822	-0.0164337
776.822	-0.0152588
777.822	-0.0141998
778.822	-0.0131348
779.822	-0.0121002
780.822	-0.0111084
781.822	-0.0102478